seconds_elapsed,orientation_qz,orientation_qy,orientation_qx,orientation_qw,orientation_roll,orientation_pitch,orientation_yaw,gyroscope_z,gyroscope_y,gyroscope_x,totalAcceleration_z,totalAcceleration_y,totalAcceleration_x,magnetometer_z,magnetometer_y,magnetometer_x,magnetometerUncalibrated_z,magnetometerUncalibrated_y,magnetometerUncalibrated_x,accelerometer_z,accelerometer_y,accelerometer_x,location_bearingAccuracy,location_speedAccuracy,location_verticalAccuracy,location_horizontalAccuracy,location_speed,location_bearing,location_altitude,location_longitude,location_latitude,microphone_dBFS,accelerometerUncalibrated_z,accelerometerUncalibrated_y,accelerometerUncalibrated_x,gyroscopeUncalibrated_z,gyroscopeUncalibrated_y,gyroscopeUncalibrated_x,class
0,-0.926066646,0.013102189897076238,-0.007402141,0.3770577443551414,-0.00383169,0.029853663772721833,2.368321298043939,-0.001196565,0.002068375,-0.007585331,9.898326065961053,-0.292751292,0.03462907,-60.38702313,-15.47584847,-17.35345817,-103.6277131,42.713114213943484,-49.98446641,0.015129536013059977,0.001796724,-0.003847053,0,1.5,1,12.97700023651123,0.008368417,0,149.39999389648438,-86.9110093,40.4279901,-80.75,9.899542985,-0.293294325,0.033695226098284306,-0.022423507,0.017797692,-0.007432619,Classroom
1,-0.925626186,0.014716371134357545,-0.00714707,0.3780848346288922,-0.002104228,0.032653942,2.3660641156353996,-1.35E-04,-8.33E-04,7.76902828998502E-4,9.919530525948238,-0.325089931,0.013848751260349708,-60.35559486,-15.34918568,-17.33375977,-103.615574,42.850303115844724,-49.97424892,0.011567328740092158,-8.58E-04,-0.007100777,0,1.5,1,12.97700023651123,0.008368417,0,149.39999389648438,-86.9110093,40.4279901,-68.33333333,9.919530525948238,-0.325089931,0.013848751260349708,-0.021361862,0.014896073930182503,9.296146742502246E-4,Classroom
2,-0.925043147,0.014468294803450988,-0.007087744,0.3795200554491247,-0.002132066,0.032153,2.362965410195508,-2.06E-04,-8.69E-04,3.14319454296266E-4,9.922324069,-0.316691819,0.017522199,-60.33863663,-15.31575769,-17.34046967,-103.5986161,42.884341163635256,-49.97998314,0.004311728,0.001581128,-0.002842899,0,1.5,1,12.97700023651123,0.008368417,0,149.39999389648438,-86.9110093,40.4279901,-71.875,9.922324069,-0.316691819,0.017522199,-0.021433029,0.014860490671566967,4.6703134645319103E-4,Classroom
3,-0.924533559,0.013752646020893912,-0.007108398,0.3807849285093326,-0.002671629,0.030847610019653745,2.360244468577857,-0.001368476,-0.001556771,0.001049708,9.939248066504025,-0.308340173,0.019703036083758455,-60.27019489,-15.38078367,-17.34181177,-103.529442,42.819559020996095,-49.98193501,0.007224287,-0.00118083,-0.007464757,0,1.5,1,12.97700023651123,0.008368417,0,149.39999389648438,-86.9110093,40.4279901,-95.44444444,9.939248066504025,-0.308340173,0.019703036083758455,-0.022595418,0.014172546,0.00120242,Classroom
4,-0.924372293,0.012442991719581187,-0.007494573,0.3812130199602017,-0.004371127,0.028722253198233936,2.3593506515026093,-0.00967958,-0.003312672,0.004569607,9.940366087607966,-0.286618918,0.03993168,-60.1805249,-15.57781371,-17.55653162,-103.4403817,42.62216335296631,-50.19665512,-1.91E-04,-0.001157646,-0.003633509,0,1.5,1,12.97700023651123,0.008368417,0,149.39999389648438,-86.9110093,40.4279901,-85.25,9.940366087607966,-0.286618918,0.03993168,-0.030906522,0.012416645405420031,0.004722319,Classroom
5,-0.924441096,0.011180356696465062,-0.007949793,0.38107776497174234,-0.006179422,0.026733297,2.359674083376394,-9.06E-04,4.4775692727959274E-4,-2.19E-04,9.932060853,-0.265969206,0.062225004264777437,-60.12952896,-15.88549768,-17.50626776,-103.390118,42.31533317565918,-50.14578117,-0.004821759,-2.36E-04,9.217106565399077E-4,0,1.5,1,12.97700023651123,0.008368417,0,149.39999389648438,-86.9110093,40.4279901,-80.22222222,9.932060853,-0.265969206,0.062225004264777437,-0.022132835,0.016177073998141635,-6.67E-05,Classroom
6,-0.924644327,0.011202405469076148,-0.007985244,0.3805826456801405,-0.006242573,0.026797558624044204,2.3607457147061246,-6.38E-05,-0.001426299,5.396805902563252E-4,9.897942857834899,-0.268446243,0.060195170645262974,-60.11061874,-15.90501776,-17.51468571,-103.3702319,42.29532524108887,-50.15517506,-0.016507047,-0.002639227,-0.00160868,0,1.5,1,12.97700023651123,0.008368417,0,149.39999389648438,-86.9110093,40.4279901,-83.25,9.897942857834899,-0.268446243,0.060195170645262974,-0.021290696,0.014303018384188125,6.923923716491576E-4,Classroom
7,-0.925111793,0.011161176,-0.008324871,0.3794392538302153,-0.006935484,0.026971401592481483,2.3632263003043756,7.857987374627909E-5,6.731180383742435E-4,-5.93E-06,9.888871017011624,-0.26785094,0.066856743,-60.13660496,-15.92209767,-17.52273766,-103.3969501,42.27873344421387,-50.16200714,-0.005564912,-8.71E-04,-0.00169567,0,1.5,1,12.97700023651123,0.008368417,0,149.39999389648438,-86.9110093,40.4279901,-82.55555556,9.888871017011624,-0.26785094,0.066856743,-0.021148362,0.016402435,1.4678123791349456E-4,Classroom
8,-0.925523497,0.012682712356587059,-0.007949827,0.37838992621134787,-0.005121995,0.029497993,2.365461203658465,-0.001119392,0.003709563,-0.00511807,9.892759351,-0.293001713,0.053908203068433455,-60.24835705,-15.81339568,-17.51675972,-103.507238,42.387069091796874,-50.15688305,0.002669223,-0.001106804,0.003303369,0,1.5,1,12.97700023651123,0.008368417,0,149.39999389648438,-86.9110093,40.4279901,-69.625,9.892759351,-0.293001713,0.053908203068433455,-0.022346334,0.01943888,-0.004965358,Classroom
9,-0.924980707,0.012110110064878048,-0.007161382,0.37975231709989526,-0.004052533,0.027845905442695017,2.3625098895100716,0.004004608,-0.00250566,0.005639959,9.900562543135424,-0.275421939,0.037313078,-60.18857704,-15.89391573,-17.46100573,-103.4484336,42.30581729888916,-50.100397,0.003040554,-5.00E-06,-0.001981962,0,1.5,1,12.97700023651123,0.008368417,0,149.39999389648438,-86.9110093,40.4279901,-86.77777778,9.900562543135424,-0.275421939,0.037313078,-0.017222334,0.013223657194633507,0.00579267,Classroom
10,-0.922061596,0.010878261449990921,-0.006940017,0.38680311545584967,-0.004385067,0.025434478339784353,2.347245991808697,0.018261664395008093,-0.002019354,-8.01E-04,9.905588853706433,-0.244576094,0.044996100846051865,-60.17161869,-15.36797371,-17.50529167,-103.4309878,42.83310108184814,-50.14553692,0.002549366,0.007219325,6.550861142792748E-4,0,1.5,1,12.97700023651123,0.008368417,0,149.39999389648438,-86.9110093,40.4279901,-103,9.905588853706433,-0.244576094,0.044996100846051865,-0.002965278,0.013709962666396376,-6.48E-04,Classroom
11,-0.921933117,0.010684128082131298,-0.007507416,0.3871044099909588,-0.005577463,0.02551266,2.346606611048134,0.002284747,1.0378467307869092E-4,6.93875025885487E-4,9.937915246463517,-0.250299703,0.053591677,-60.10793503,-15.38920171,-17.44990355,-103.3682803,42.81138526916504,-50.091003,0.014989436251445882,0.003422609,-0.001372698,0,1.5,1,12.97700023651123,0.008368417,0,149.39999389648438,-86.9110093,40.4279901,-89.5,9.937915246463517,-0.250299703,0.053591677,-0.018942196,0.015833102,8.4658687509307E-4,Classroom
12,-0.920574684,0.010485850835164774,-0.007680053,0.3903498238730199,-0.005955959,0.025304421800577525,2.3395732097255375,-0.001249865,2.3425690201337186E-4,-4.80E-04,9.963277918621174,-0.25369728,0.057590362292350476,-60.18528324,-15.16032979,-17.55714163,-103.4455059,43.040379219055175,-50.19641098,0.014650530028111727,-0.001804574,-0.001853873,0,1.5,1,12.97700023651123,0.008368417,0,149.39999389648438,-86.9110093,40.4279901,-101.2222222,9.963277918621174,-0.25369728,0.057590362292350476,-0.022476807,0.015963573985308118,-3.28E-04,Classroom
13,-0.920434046,0.010436897524274312,-0.007494973,0.3906865999675714,-0.005643974,0.025071932128272377,2.338838611657803,-5.87E-04,2.1144710570717088E-4,4.4775123779590316E-12,9.957510864850386,-0.247355135,0.055101711,-60.14221703,-15.20473768,-17.4456336,-103.4017077,42.99609329223633,-50.0849033,-9.99E-04,0.00182236,-8.98E-04,0,1.5,1,12.97700023651123,0.008368417,0,149.39999389648438,-86.9110093,40.4279901,-100.5,9.957510864850386,-0.247355135,0.055101711,-0.021814295,0.015940764,1.5271179570565716E-4,Classroom
14,-0.920532527,0.010353918702712336,-0.007593616,0.3904547798402101,-0.005896751,0.024994726265663084,2.339345323229299,-3.37E-04,-5.49E-04,-8.90E-05,9.955791741898917,-0.246028049,0.058447016348827235,-59.85527287,-15.19778372,-17.61435963,-103.1151302,43.00133937835693,-50.25387321,-7.74E-04,0.002837914,-1.73E-04,0,1.5,1,12.97700023651123,0.008368417,0,149.39999389648438,-86.9110093,40.4279901,-84,9.955791741898917,-0.246028049,0.058447016348827235,-0.021563501,0.015180740623002491,6.375346362174859E-5,Classroom
15,-0.920597565,0.010342849463730762,-0.007651713,0.3903005073950129,-0.006016605,0.025018689376347273,2.3396817573065896,-5.86E-04,1.5122910116084862E-4,-2.43E-04,9.952251813944104,-0.249594053,0.058731599,-59.98081078,-15.26585972,-17.5595817,-103.240912,42.93350727081299,-50.20068115,-0.002616225,-4.97E-04,-0.001100676,0,1.5,1,12.97700023651123,0.008368417,0,149.39999389648438,-86.9110093,40.4279901,-102.875,9.952251813944104,-0.249594053,0.058731599,-0.021812585,0.015880546225144447,-9.04E-05,Classroom
16,-0.920696114,0.010521683,-0.007626621,0.3900636492423641,-0.005837327,0.025326942,2.3401935378324636,-6.21E-04,-2.28E-04,-1.36E-04,9.913542617871924,-0.254356465,0.057355146,-60.11549881,-15.31075574,-17.53237555,-103.3755998,42.88983123779297,-50.17164509,-0.019308461,-0.002723192,-5.13E-04,0,1.5,1,12.97700023651123,0.008368417,0,149.39999389648438,-86.9110093,40.4279901,-85.66666667,9.913542617871924,-0.254356465,0.057355146,-0.021848168,0.015500990637731783,1.6309018585903262E-5,Classroom
17,-0.921419765,0.010914180997433593,-0.008161727,0.38832779011680085,-0.006567314,0.026454531687121946,2.343968229386413,-0.011877421,-2.16E-04,-0.001239486,9.897042617057133,-0.26436044,0.063165871,-60.05913464,-15.40225569,-17.4394117,-103.319846,42.797721214294434,-50.07941303,-0.008154175,-0.002242951,-0.00176963,0,1.5,1,12.97700023651123,0.008368417,0,149.39999389648438,-86.9110093,40.4279901,-96.5,9.897042617057133,-0.26436044,0.063165871,-0.033104363,0.015512851735992917,-0.001086774,Classroom
18,-0.922099479,0.011215262087875778,-0.00798555,0.3866983316477063,-0.006055667,0.026861046359521672,2.3474940026848063,-0.010726893,-1.45E-04,7.413195070891993E-4,9.896869796973009,-0.266100859,0.055342652,-60.10342083,-15.79448575,-17.31375174,-103.3632779,42.405125312805175,-49.95387508,-0.001769723,-3.42E-04,-0.005170238,0,1.5,1,12.97700023651123,0.008368417,0,149.39999389648438,-86.9110093,40.4279901,-83.44444444,9.896869796973009,-0.266100859,0.055342652,-0.031953835,0.015584018425021356,8.940313263452675E-4,Classroom
19,-0.919646403,0.01163621,-0.006639148,0.39249282959595466,-0.003079599,0.026615309664635982,2.3348670584484212,0.020088276,0.004017952,-0.00202232,9.902522318571517,-0.26666905,0.027561018,-60.2015089,-15.40567164,-17.36474768,-103.4609998,42.79406101226807,-50.00499302,0.001703438,-0.001565047,-3.04E-04,0,1.5,1,12.97700023651123,0.008368417,0,149.39999389648438,-86.9110093,40.4279901,-58.22222222,9.902522318571517,-0.26666905,0.027561018,-0.001138667,0.019747268684316897,-0.001869608,Classroom
20,-0.922643866,0.012361981625695831,-0.006686281,0.3853183105153945,-0.002810402,0.027962573668331776,2.3504183894222224,-0.040652478,-7.03E-04,0.001192042,9.893380776192378,-0.278885803,0.025098502676079538,-60.16734879,-15.70652378,-17.29569571,-103.427206,42.493940925598146,-49.93618504,-0.003277806,-0.003698839,-0.004261192,45,1.5,1,1500,1.403022289276123,248.7431641,149.39999389648438,-86.9112426,40.427921,-79.75,9.893380776192378,-0.278885803,0.025098502676079538,-0.061879421,0.015026546196415297,0.001344754,Classroom
21,-0.922514668,0.012202553125550446,-0.005318283,0.3856516601969895,-4.08E-04,0.026621321306645292,2.3496701046101096,0.03720386,-0.002683577,0.001820681,9.906189946294989,-0.260373369,4.152592805042429E-4,-60.29666878,-15.75520167,-17.23469563,-103.5565263,42.44489727020264,-49.87457481,0.005499812,0.003346083,-0.004220042,45,1.5,1,1500,1.403022289276123,248.7431641,149.39999389648438,-86.9112426,40.427921,-84.88888889,9.906189946294989,-0.260373369,4.152592805042429E-4,0.015976918,0.013045740468106548,0.001973392,Classroom
22,-0.920510381,0.010893860097544698,-0.007368058,0.3904962691550071,-0.005058445,0.025812835074388064,2.339243212571511,-0.00187953,-0.00256086,1.6445887516825818E-4,9.928590756018185,-0.256400819,0.04534457,-60.38023884,-15.26817773,-17.4093996,-103.639608,42.932531204223636,-50.04952312,0.010176530251136193,-1.22E-04,-0.004281197,45,1.5,1,1500,1.403022289276123,248.7431641,149.39999389648438,-86.9112426,40.427921,-106.5,9.928590756018185,-0.256400819,0.04534457,-0.023106472,0.013168457376125913,3.171706540832439E-4,Classroom
23,-0.920697247,0.010677733594208087,-0.007597187,0.3900574153488122,-0.005661466,0.025591355287334295,2.340204435644798,-2.18E-04,-4.77E-04,5.3375007729362516E-5,9.943752057,-0.254731071,0.053301285850324946,-60.36425678,-15.34198772,-17.55531168,-103.6238702,42.85933124542236,-50.19531322,0.01072392,-4.89E-04,-0.002833728,45,1.5,1,1500,1.403022289276123,248.7431641,149.39999389648438,-86.9112426,40.427921,-92,9.943752057,-0.254731071,0.053301285850324946,-0.02144489,0.015251907302988964,2.0608679872928458E-4,Classroom
24,-0.920538507,0.010660176,-0.007381321,0.39043652721979083,-0.005267064,0.025392769121573965,2.3393767805932795,-1.94E-04,2.105346919281535E-4,-5.93E-06,9.961323664026352,-0.252448596,0.051582170618150965,-60.33058491,-15.36333773,-17.58776369,-103.5901981,42.83627311706543,-50.22837509,0.008577976,3.1292235967025016E-4,-7.39E-04,45,1.5,1,1500,1.403022289276123,248.7431641,149.39999389648438,-86.9112426,40.427921,-100.75,9.961323664026352,-0.252448596,0.051582170618150965,-0.021421168,0.015939851770701917,1.4678124299960085E-4,Classroom
25,-0.920567743,0.010684160000273904,-0.00733366,0.3903678493592346,-0.005162456,0.025399350769166808,2.3395247714033403,-2.65E-04,-3.59E-04,-1.36E-04,9.943203176109536,-0.251443843,0.049619127,-60.31997066,-15.4727717,-17.54481966,-103.5800721,42.72671710968017,-50.18457703,-0.008843339,0.0013395,-0.001647985,45,1.5,1,1500,1.403022289276123,248.7431641,149.39999389648438,-86.9112426,40.427921,-103.7777778,9.943203176109536,-0.251443843,0.049619127,-0.021492334,0.015370518421229808,1.6309019716149106E-5,Classroom
26,-0.920674263,0.010700659,-0.007364523,0.3901155628625629,-0.005213381,0.02545242,2.3400733123705226,-1.94E-04,2.0756942301409914E-5,-1.60E-04,9.945555548066075,-0.252887087,0.051268548,-60.19321259,-15.48094568,-17.53298573,-103.4535579,42.72000709533691,-50.17262115,0.002807071,2.135113605017801E-4,-4.56E-04,45,1.5,1,1500,1.403022289276123,248.7431641,149.39999389648438,-86.9112426,40.427921,-96.5,9.945555548066075,-0.252887087,0.051268548,-0.021421167,0.015750074,-7.41E-06,Classroom
27,-0.920706344,0.010643746504939875,-0.007341737,0.3900418061654545,-0.005217854,0.02532939,2.3402339139030977,-2.77E-04,-1.45E-04,-5.34E-05,9.951991163767302,-0.250610783,0.051353655057027936,-60.35230053,-15.60379965,-17.64022371,-103.6122802,42.596421241760254,-50.2804689,0.002188025,0.001279319,-3.51E-04,45,1.5,1,1500,1.403022289276123,248.7431641,149.39999389648438,-86.9112426,40.427921,-93.66666667,9.951991163767302,-0.250610783,0.051353655057027936,-0.021504195,0.015584018,9.933680644059933E-5,Classroom
28,-0.920654227,0.010600801168497905,-0.00721607,0.39016820880973224,-0.005016453,0.025152863663377115,2.3399574664032574,2.8021878436280105E-4,5.663680669951062E-4,1.2454167415288468E-4,9.950158165,-0.251272512,0.047667698631768375,-60.4198885,-15.49790369,-17.49016367,-103.6797461,42.70158519744873,-50.12918903,-3.96E-04,-7.83E-04,-0.001861037,45,1.5,1,1500,1.403022289276123,248.7431641,149.39999389648438,-86.9112426,40.427921,-90.88888889,9.950158165,-0.251272512,0.047667698631768375,-0.020946723,0.016295685098298544,2.7725347532501934E-4,Classroom
29,-0.920652834,0.010750579023824154,-0.007079655,0.3901699509435487,-0.004648239,0.025322310988185475,2.3399489296292795,-1.71E-04,-3.11E-04,-1.60E-04,9.951769763983568,-0.251223146,0.045019332,-60.37365089,-15.47826169,-17.51663773,-103.6330197,42.72232517242432,-50.15639507,5.452054218181129E-4,8.856030633148638E-4,-0.002153458,45,1.5,1,1500,1.403022289276123,248.7431641,149.39999389648438,-86.9112426,40.427921,-102.75,9.951769763983568,-0.251223146,0.045019332,-0.021397445,0.015417962841400243,-7.41E-06,Classroom
30,-0.920676847,0.010748731089954815,-0.007035985,0.3901140903963626,-0.004570757,0.025284511,2.3400694675815914,-1.94E-04,-2.67E-05,-6.52E-05,9.949943181380485,-0.250816599,0.044633112,-60.40427269,-15.48338566,-17.52176157,-103.6641296,42.71793327331543,-50.16115307,-0.001778204,8.862519148484017E-4,8.140397664991397E-5,45,1.5,1,1500,1.403022289276123,248.7431641,149.39999389648438,-86.9112426,40.427921,-116.4444444,9.949943181380485,-0.250816599,0.044633112,-0.021421168,0.015702629525178265,8.747567596745867E-5,Classroom
31,-0.920773704,0.010903423,-0.007009343,0.3898816592991352,-0.004407434,0.025547568417655733,2.3405716235821066,-1.17E-04,-1.88E-04,-2.70E-04,9.916905366101311,-0.256787039,0.041162938225135046,-60.45514675,-15.48131166,-17.50285168,-103.715248,42.719275283813474,-50.14248714,-0.016809519,-0.003031421,-0.00265473,45,1.5,1,1500,1.403022289276123,248.7431641,149.39999389648438,-86.9112426,40.427921,-126.375,9.916905366101311,-0.256787039,0.041162938225135046,-0.021344413,0.015541364017945643,-1.17E-04,Classroom
32,-0.921074599,0.010985365309255216,-0.00723012,0.3891638740173821,-0.00477039,0.025866913021478838,2.342133748878553,-5.19E-05,-5.37E-04,2.668750205628791E-4,9.898169276783767,-0.256319511,0.046604866957635556,-60.47027477,-15.50266169,-17.42233177,-103.7295223,42.69719314575195,-50.06330898,-0.00959213,1.7219087452564425E-5,-5.57E-04,45,1.5,1,1500,1.403022289276123,248.7431641,149.39999389648438,-86.9112426,40.427921,-131.6666667,9.898169276783767,-0.256319511,0.046604866957635556,-0.021278834,0.015192601739347559,4.195868132581699E-4,Classroom
33,-0.921164656,0.011051590572500113,-0.00722281,0.3889489576075841,-0.004711416,0.025982162526365624,2.342599350271873,-4.67E-04,-3.35E-04,-2.55E-04,9.900907775730763,-0.256017504,0.041055493,-60.40293056,-15.50022161,-17.4106197,-103.6623001,42.69999916,-50.04976715,-4.14E-04,0.001294158,-0.005520753,45,1.5,1,1500,1.403022289276123,248.7431641,149.39999389648438,-86.9112426,40.427921,-102.25,9.900907775730763,-0.256017504,0.041055493,-0.021693974,0.015394240649398958,-1.02E-04,Classroom
34,-0.921194909,0.011152907835265386,-0.007125698,0.3888761887272585,-0.004455668,0.026092935154594266,2.3427539033797182,-2.06E-04,-2.67E-05,-1.25E-04,9.905469718488675,-0.258401615,0.045643673,-60.44660675,-15.49900166,-17.42294167,-103.7067082,42.70060920715332,-50.06208897,0.001930403,7.884247789105166E-5,0.001603907,45,1.5,1,1500,1.403022289276123,248.7431641,149.39999389648438,-86.9112426,40.427921,-96.55555556,9.905469718488675,-0.258401615,0.045643673,-0.021433029,0.015702629534220233,2.81701168470374E-5,Classroom
35,-0.921275718,0.011130684986710548,-0.007147212,0.38868492957457756,-0.00451803,0.026067785810209014,2.343169937,-3.37E-04,-2.05E-04,-5.34E-05,9.909450993954557,-0.258799449,0.045173239163789916,-60.4466066,-15.48423966,-17.45100174,-103.7073183,42.71659122467041,-50.0919791,0.002511413,-4.77E-04,5.058776044729844E-4,45,1.5,1,1500,0,0,149.39999389648438,-86.9134178,40.4272756,-76.875,9.909450993954557,-0.258799449,0.045173239163789916,-0.021563501,0.015524712807128152,9.933678553105124E-5,Classroom
36,-0.921381008,0.012628906325084491,-0.007019019,0.3883874754882553,-0.003127676,0.028728477331330476,2.3437846308773005,-0.003005309,0.003104646,-0.006683737,9.934223165878883,-0.281933176,0.022104850005024882,-60.36816074,-15.3876157,-17.45978565,-103.6287502,42.81211700439453,-50.10051922,0.015713757,0.004542984,-0.010964791,45,1.5,1,1500,0,0,149.39999389648438,-86.9134178,40.4272756,-42.33333333,9.934223165878883,-0.281933176,0.022104850005024882,-0.024232251,0.018833963015654747,-0.006531025,Classroom
37,-0.921671934,0.014435068071250197,-0.006673916,0.3876438111934847,-0.001111631,0.031788251,2.3453555222853875,-5.26E-04,3.647291592041989E-4,5.337500320837914E-5,9.960641157279895,-0.315716105,0.015692735,-60.5407909,-15.27208165,-17.34510565,-103.8005257,42.92765110015869,-49.985229,0.013642570347461885,-5.11E-04,0.006526212,45,1.5,1,1500,0,0,149.39999389648438,-86.9134178,40.4272756,-67.125,9.960641157279895,-0.315716105,0.015692735,-0.021753279,0.016094046,2.0608684393911831E-4,Classroom
38,-0.921612154,0.014323154853168622,-0.006585215,0.38779171635803666,-0.001029774,0.031513331,2.3450350205875137,-4.43E-04,1.986735688016108E-4,-5.34E-05,9.962781443179232,-0.314325132,0.011060996878229859,-60.57946476,-15.27488771,-17.25592373,-103.8391999,42.926797218322754,-49.8955592,0.002420324,7.726787363441246E-5,0.002073541,45,1.5,1,1500,0,0,149.39999389648438,-86.9134178,40.4272756,-62.44444444,9.962781443179232,-0.314325132,0.011060996878229859,-0.021670251,0.015927990645314884,9.93367923125263E-5,Classroom
39,-0.921662805,0.014305138408920719,-0.006579121,0.3876720811556844,-0.00103662,0.031475266,2.3452949732252697,-2.42E-04,-7.41E-05,-1.60E-04,9.963690313320715,-0.312330146,0.008499747,-60.55982285,-15.25487967,-17.33424772,-103.8200462,42.94448734283447,-49.97339516,4.892071473945692E-4,0.001479642,-0.002227693,45,1.5,1,1500,0,0,149.39999389648438,-86.9134178,40.4272756,-77.875,9.963690313320715,-0.312330146,0.008499747,-0.021468612,0.015655185,-7.41E-06,Classroom
40,-0.921719556,0.014212186421150142,-0.006624586,0.3875398337841034,-0.001197046,0.031338975,2.345585260576415,-1.47E-04,-2.88E-04,2.075694637029495E-4,9.956192498068207,-0.310956596,0.013494474229004993,-60.50382454,-15.3223457,-17.37621565,-103.7640484,42.87750893,-50.01511894,-0.003266427,0.00109403,0.001221729,45,1.5,1,1500,0,0,149.39999389648438,-86.9134178,40.4272756,-81.55555556,9.956192498068207,-0.310956596,0.013494474229004993,-0.021373723,0.015441685146426113,3.602812710914363E-4,Classroom
41,-0.922742846,0.013114920172553796,-0.007087137,0.3851136456315334,-0.002973928,0.029661558299826887,2.3508760768633623,-0.015329917,-0.003324419,0.004792802,9.953953493,-0.296152457,0.026321049274716218,-60.47893684,-15.45434962,-17.33107559,-103.7387943,42.74538307189941,-49.97168694,-0.002440003,-8.24E-04,-0.003282504,45,1.5,1,1500,0,0,149.39999389648438,-86.9134178,40.4272756,-61.625,9.953953493,-0.296152457,0.026321049274716218,-0.036556859,0.012404898299092356,0.004945513,Classroom
42,-0.92426705,0.011481160252780011,-0.006532027,0.3815154172841785,-0.003315788,0.026209968,2.358692210854836,0.002083108,3.647291637251823E-4,0.001536014,9.954249632,-0.258622312,0.03359825,-60.30276901,-15.98614773,-17.47564566,-103.5631141,42.21468322753906,-50.11479336,-0.001819648,0.002381646,6.352317727451185E-4,45,1.5,1,1500,0,0,149.39999389648438,-86.9134178,40.4272756,-75.22222222,9.954249632,-0.258622312,0.03359825,-0.019143835,0.016094046,0.001688726,Classroom
43,-0.924252171,0.010854528683409529,-0.006759412,0.3815680094135618,-0.004212767,0.025225528,2.3585940472130638,1.8532986886057894E-4,2.935624588733015E-4,2.668750092604207E-4,9.953050308,-0.251684868,0.042966267,-60.29081299,-15.96601773,-17.49455572,-103.5510365,42.23420299530029,-50.13394714,-8.68E-04,-5.55E-04,0.001101589,45,1.5,1,1500,0,0,149.39999389648438,-86.9134178,40.4272756,-73.33333333,9.953050308,-0.251684868,0.042966267,-0.021041612,0.016022879603201326,4.195867991300969E-4,Classroom
44,-0.923926958,0.010777356808336035,-0.006763698,0.3823556382100559,-0.004258501,0.025089295183136625,2.3568900835166855,-0.001178698,4.596180650993314E-4,-0.001369958,9.955721966,-0.252477635,0.041377828,-60.31265083,-15.96174771,-17.4685697,-103.5726301,42.23957107543945,-50.1077169,0.003547705,-0.002744561,-9.74E-04,45,1.5,1,1500,0,0,149.39999389648438,-86.9134178,40.4272756,-72.125,9.955721966,-0.252477635,0.041377828,-0.02240564,0.016188935177780472,-0.001217247,Classroom
45,-0.923851809,0.011177966850402864,-0.006698349,0.38252805969090137,-0.003826214,0.025780904694523626,2.356509745699688,-0.002080143,1.512291215052738E-4,1.7791681299076498E-5,9.944660086,-0.251542604,0.034416958,-60.41195881,-16.07484169,-17.44014376,-103.6719383,42.124890937805176,-50.07892513,-0.006669109,0.004935048,-0.003176584,45,1.5,1,1500,0,0,149.39999389648438,-86.9134178,40.4272756,-81.33333333,9.944660086,-0.251542604,0.034416958,-0.023307085,0.015880546279396248,1.705034892526862E-4,Classroom
46,-0.923826079,0.011186136023222822,-0.006587828,0.3825919318546369,-0.003613835,0.025711644675980493,2.356369150495066,0.005190719,5.426457913556289E-4,8.124861780337049E-4,9.913272644709615,-0.261119674,0.037817632525173714,-60.37279663,-15.97382572,-17.42501572,-103.6326542,42.22676136016846,-50.06501701,-0.017042706,-0.004335032,5.215814572225497E-4,45,1.5,1,1500,0,0,149.39999389648438,-86.9134178,40.4272756,-90.125,9.913272644709615,-0.261119674,0.037817632525173714,-0.016036223,0.016271962901776276,9.651979724243644E-4,Classroom
47,-0.923479933,0.010979179292917252,-0.006221733,0.3834390026851765,-0.003072599,0.025051985,2.354530895,0.001478191,-1.93E-04,1.6012500510415405E-4,9.895396102979346,-0.246916647,0.032198565,-60.39365871,-15.96357769,-17.46442179,-103.6540044,42.23774108886719,-50.10466721,-0.009250196,3.226220029071697E-4,0.002746518,45,1.5,1,1500,0,0,149.39999389648438,-86.9134178,40.4272756,-108.4444444,9.895396102979346,-0.246916647,0.032198565,-0.019748751,0.015536573986766987,3.12836804015797E-4,Classroom
48,-0.923852612,0.012127395484198644,-0.005981515,0.38250510409040356,-0.00177682,0.026987386053626976,2.356526013716911,-0.002661337,0.003484202,-0.003884514,9.897698874612457,-0.265548139,0.013601919434664012,-60.44465458,-15.92295169,-17.3077737,-103.7043907,42.27800125,-49.94814114,-0.001751168,0.003269197,-0.002349228,45,1.5,1,1500,0,0,149.39999389648438,-86.9134178,40.4272756,-95.5,9.897698874612457,-0.265548139,0.013601919434664012,-0.023888279,0.019213518715526873,-0.003731802,Classroom
49,-0.924103463,0.013493957133620109,-0.005423447,0.3818651484054269,2.820633764114081E-4,0.029085672,2.3578739606061028,-1.35E-04,-3.11E-04,2.905972690764561E-4,9.903910359132636,-0.285405083,-0.002442189,-60.54469467,-15.80656378,-17.21322355,-103.8046738,42.392803268432615,-49.85371304,0.002346168,9.010393642684788E-4,-5.90E-04,45,1.5,1,1500,0,0,149.39999389648438,-86.9134178,40.4272756,-101.4444444,9.903910359132636,-0.285405083,-0.002442189,-0.021361862,0.015417962841400243,4.4330909228838475E-4,Classroom
50,-0.924134926,0.013442566609368302,-0.005346734,0.38179157932217306,3.8211459086312516E-4,0.02893214,2.3580325681429644,-1.88E-04,-5.37E-11,-3.05E-04,9.911797375354952,-0.290028109,-0.006269544,-60.5360326,-15.86219573,-17.2405517,-103.7957682,42.33826930999756,-49.88067493,0.005786841,-0.003044346,-0.002369141,45,1.5,1,1500,0,0,149.39999389648438,-86.9134178,40.4272756,-106.375,9.911797375354952,-0.290028109,-0.006269544,-0.021414895,0.015729317056516614,-1.53E-04,Classroom
51,-0.92414678,0.013370696048351746,-0.005310405,0.38176633923956493,3.938131700627671E-4,0.028771553206646327,2.3580881253029538,-3.01E-04,-5.01E-04,-3.14E-04,9.943455825731592,-0.282800274,-0.004370386,-60.53896076,-15.83145172,-17.25018969,-103.7986959,42.36937931060791,-49.88945908,0.019766205722845875,0.002841851,-3.83E-04,45,1.5,1,1500,0,0,149.39999389648438,-86.9134178,40.4272756,-101.8888889,9.943455825731592,-0.282800274,-0.004370386,-0.021527918,0.015228185079340796,-1.62E-04,Classroom
52,-0.924019016,0.013018479570746422,-0.005278044,0.38208807209163037,1.9433630990223701E-4,0.028095626914240782,2.3573987113619315,-5.86E-04,9.192355899411497E-5,-2.55E-04,9.964753077,-0.279036806,-0.001097678,-60.56189682,-15.88256971,-17.29215759,-103.8218765,42.317407302856445,-49.93154877,0.010591081045206311,7.040118708193881E-4,9.002907724951584E-4,45,1.5,1,1500,0,0,149.39999389648438,-86.9134178,40.4272756,-92.77777778,9.964753077,-0.279036806,-0.001097678,-0.021812585,0.015821241,-1.02E-04,Classroom
53,-0.924103791,0.013083769460615603,-0.005194134,0.38188195488985305,3.931152416653188E-4,0.028152279971728048,2.357841688452415,3.113532755343081E-5,8.006244603978488E-5,1.3640274980910195E-4,9.961823093080984,-0.276887911,-0.007785385,-60.47930279,-15.85902374,-17.29496368,-103.7392824,42.34070945739746,-49.93435505,-6.89E-04,0.003642535,-0.003789121,45,1.5,1,1500,0,0,149.39999389648438,-86.9134178,40.4272756,-95.125,9.961823093080984,-0.276887911,-0.007785385,-0.021195807,0.015809379563241906,2.8911460523303707E-4,Classroom
54,-0.924220335,0.013046050299573871,-0.005230329,0.38160039701508086,2.8874294826291414E-4,0.02811024,2.358452683513604,-2.30E-04,-1.81E-04,-1.72E-04,9.958516634427584,-0.282603283,-0.001656569,-60.50809479,-15.88757172,-17.22469164,-103.7688061,42.31301513671875,-49.86530304,-7.30E-04,-0.003152607,0.001399739,45,1.5,1,1500,0,0,149.39999389648438,-86.9134178,40.4272756,-101.7777778,9.958516634427584,-0.282603283,-0.001656569,-0.021456752,0.015548435121195988,-1.93E-05,Classroom
55,-0.924458603,0.013044801,-0.005349231,0.3810213633532663,5.0278698213818626E-5,0.0281988,2.359708429540245,-1.35E-04,-3.23E-04,1.245416673714096E-4,9.952277878,-0.278351484,-0.001103486,-60.57458496,-15.84267575,-17.35803772,-103.8341984,42.358521156311035,-49.99633118,-0.003786152,0.002918471,-6.27E-04,45,1.5,1,1500,0,0,149.39999389648438,-86.9134178,40.4272756,-85.375,9.952277878,-0.278351484,-0.001103486,-0.021361862,0.015406101716013209,2.772534854972319E-4,Classroom
56,-0.924404768,0.013056024276081797,-0.005294966,0.38115260930894646,1.6334616500598626E-4,0.028178208281548277,2.3594231026843913,-2.65E-04,-1.81E-04,-2.79E-04,9.939401987686898,-0.279176192,-0.005229944,-60.50406868,-15.79765772,-17.32131573,-103.7645364,42.40244117736816,-49.96070702,-0.006237289,0.001424978,-0.003292077,45,1.5,1,1500,0,0,149.39999389648438,-86.9134178,40.4272756,-88.66666667,9.939401987686898,-0.279176192,-0.005229944,-0.021492334,0.015548435,-1.26E-04,Classroom
57,-0.92451445,0.013210185315206792,-0.005354899,0.380880279,1.6166417886443986E-4,0.028509013,2.3600103044972838,-2.82E-05,-3.83E-04,-5.87E-04,9.951209318290637,-0.283421712,-0.002442189,-60.50724083,-15.73616971,-17.33290569,-103.7678303,42.46429515838623,-49.97266315,0.00427073,3.8528731725748303E-4,-0.001170125,45,1.5,1,1500,0,0,149.39999389648438,-86.9134178,40.4272756,-75.125,9.951209318290637,-0.283421712,-0.002442189,-0.021255112,0.015346796197581638,-4.34E-04,Classroom
58,-0.924562997,0.013155317449381629,-0.005441192,0.3807630741480485,-4.34E-05,0.028473253624097816,2.3602669979762103,-2.54E-04,-1.10E-04,-5.34E-05,9.950585050490297,-0.28174906,-9.09E-04,-60.53822903,-15.68456372,-17.28715582,-103.798086,42.51553524017334,-49.92703495,-2.56E-04,0.001807082,-0.001001664,45,1.5,1,1500,0,0,149.39999389648438,-86.9134178,40.4272756,-94.44444444,9.950585050490297,-0.28174906,-9.09E-04,-0.021480473,0.015619602,9.933678666129708E-5,Classroom
59,-0.924524969,0.013168618369560976,-0.005409548,0.38085548035227335,2.816204704896126E-5,0.028473792382730886,2.360066090638821,-1.53E-04,-2.35E-04,-1.29E-04,9.949992605783407,-0.28345656,-0.001838176,-60.54908695,-15.66687368,-17.3523036,-103.8089439,42.53322525024414,-49.99352493,-4.57E-05,-8.76E-05,-0.001569697,45,1.5,1,1500,0,0,149.39999389648438,-86.9134178,40.4272756,-111.75,9.949992605783407,-0.28345656,-0.001838176,-0.021379653,0.015494375856808172,2.349411247101111E-5,Classroom
60,-0.924551789,0.013222785368200067,-0.005447462,0.3807879515643259,-2.77E-06,0.028602853,2.360211860786364,-1.59E-04,-1.10E-04,-2.97E-05,9.945314453643503,-0.285489298,-0.001025081,-60.6307048,-15.62222167,-17.37816778,-103.8911716,42.57860931396485,-50.01902306,-0.002678325,-7.41E-04,-9.69E-04,0,1.5,1,12.477999687194824,0.024347014725208282,0,149.39999389648438,-86.9110157,40.4279856,-111.8888889,9.945314453643503,-0.285489298,-0.001025081,-0.021385584,0.015619602,1.2305903065389076E-4,Classroom
61,-0.924585858,0.013320989626486904,-0.005469942,0.38070147130095844,2.7787104498917332E-5,0.028801605322407286,2.3603973087755223,-6.38E-05,-2.52E-04,7.709722685654765E-5,9.911446034,-0.287307146,-0.001234162,-60.6583989,-15.66906964,-17.25872959,-103.9181335,42.52956516265869,-49.89946304,-0.017828506,-0.001111831,-8.75E-04,0,1.5,1,12.477999687194824,0.024347014725208282,0,149.39999389648438,-86.9110157,40.4279856,-99.875,9.911446034,-0.287307146,-0.001234162,-0.021290695,0.015477268495461315,2.2980903367991152E-4,Classroom
62,-0.924686608,0.013370819796708603,-0.00556815,0.38045352263358034,-1.24E-04,0.028968532560664475,2.3609348292489654,-9.93E-05,-3.35E-04,-5.34E-05,9.895648863709088,-0.288375784,-9.55E-04,-60.66364479,-15.64393767,-17.36657763,-103.9239899,42.55664928436279,-50.00560295,-0.008596096,-0.001247887,-0.002097343,0,1.5,1,12.477999687194824,0.024347014725208282,0,149.39999389648438,-86.9110157,40.4279856,-89.55555556,9.895648863709088,-0.288375784,-9.55E-04,-0.021326278,0.015394240681045843,9.933680644059933E-5,Classroom
63,-0.924741805,0.013525185,-0.005593787,0.38031351045497414,-5.80E-05,0.029273571,2.3612348963913408,-2.42E-04,-2.28E-04,5.930555912042127E-6,9.896990602,-0.289600566,-9.66E-04,-60.66828083,-15.66321366,-17.30313766,-103.9282598,42.53627513885498,-49.94277306,-7.69E-04,4.210906121337298E-4,-0.001585932,0,1.5,1,12.477999687194824,0.024347014725208282,0,149.39999389648438,-86.9110157,40.4279856,-83.875,9.896990602,-0.289600566,-9.66E-04,-0.021468612,0.015500990691983584,1.5864236386565185E-4,Classroom
64,-0.924745645,0.013509539299581236,-0.005622439,0.3803042931464112,-1.23E-04,0.029266420245459935,2.3612558031545103,-1.82E-04,-2.99E-04,-5.34E-05,9.899412238482133,-0.290582758,-9.55E-04,-60.58544281,-15.6722417,-17.38585354,-103.8456657,42.527003059387205,-50.02658707,4.082189022916035E-4,-6.09E-04,-0.001975929,0,1.5,1,12.477999687194824,0.024347014725208282,0,149.39999389648438,-86.9110157,40.4279856,-88.66666667,9.899412238482133,-0.290582758,-9.55E-04,-0.021409306,0.015429824002955145,9.933679344277214E-5,Classroom
65,-0.924658902,0.013487336370479134,-0.005553003,0.38051695586408224,-4.95E-06,0.029172521,2.3607947039372714,-7.71E-05,-1.60E-04,1.1268056232880041E-4,9.905661490357037,-0.289026261,-0.002651271,-60.64534485,-15.61843966,-17.31009172,-103.9056897,42.583367080688475,-49.950825,0.004478723,-8.43E-05,-0.002757252,0,1.5,1,12.477999687194824,0.024347014725208282,0,149.39999389648438,-86.9110157,40.4279856,-101.5555556,9.905661490357037,-0.289026261,-0.002651271,-0.021361862,0.015453546226603313,2.6539236576142677E-4,Classroom
66,-0.924598262,0.013508414894848773,-0.005489265,0.38066441283642666,1.336401121666887E-4,0.029162974,2.360473736975957,-1.60E-04,2.9652779560210635E-5,-2.67E-04,9.913792332399238,-0.288712637,-0.002349264,-60.60484104,-15.66418964,-17.30582167,-103.864576,42.53676315307617,-49.94509113,0.003182893,7.699415521714294E-4,-2.68E-04,0,1.5,1,12.477999687194824,0.024347014725208282,0,149.39999389648438,-86.9110157,40.4279856,-87.625,9.913792332399238,-0.288712637,-0.002349264,-0.021539778,0.015453546199477414,-1.14E-04,Classroom
67,-0.924574314,0.013541761514486618,-0.005465849,0.3807217565555017,2.0419632010177418E-4,0.029206803140854373,2.360348421393089,-7.71E-05,-1.48E-04,1.0081945050471616E-4,9.912874731045324,-0.291041574,-0.002163414,-60.62326305,-15.6527217,-17.38414568,-103.8826318,42.548719062805176,-50.02426895,6.127959316216626E-4,-0.001345489,-6.15E-04,0,1.5,1,12.477999687194824,0.024347014725208282,0,149.39999389648438,-86.9110157,40.4279856,-55.55555556,9.912874731045324,-0.291041574,-0.002163414,-0.021456751,0.01527563,2.535312460256216E-4,Classroom
68,-0.924583727,0.013608311902946578,-0.005470125,0.3806963903972736,2.4617371809654287E-4,0.029333117,2.3604018779901357,-1.53E-04,-1.06E-04,-1.64E-04,9.915113625017185,-0.291247751,-0.001846887,-60.62594677,-15.65674772,-17.32046167,-103.8865358,42.54420513153076,-49.96119488,0.001594635,-4.72E-04,7.056642028216559E-4,0,1.5,1,12.477999687194824,0.024347014725208282,0,149.39999389648438,-86.9110157,40.4279856,-57.5,9.915113625017185,-0.291247751,-0.001846887,-0.021532366,0.015318169876431616,-1.17E-05,Classroom
69,-0.924532914,0.013588628424241127,-0.005426611,0.3808211516408087,3.1563836345086E-4,0.029263559584189386,2.3601314165059804,4.1513886863311515E-5,6.523611277197172E-5,3.143194633382327E-4,9.916417492246165,-0.290147171,-0.005555182,-60.62558083,-15.66394567,-17.29191355,-103.8853162,42.53725109100342,-49.93106121,6.879602821127883E-4,2.232584559801713E-4,-0.002344506,0,1.5,1,12.477999687194824,0.024347014725208282,0,149.39999389648438,-86.9110157,40.4279856,-76.55555556,9.916417492246165,-0.290147171,-0.005555182,-0.02133814,0.01548913,4.670312628149986E-4,Classroom
70,-0.924573733,0.013533563,-0.005509139,0.3807228395661104,1.1789972071030595E-4,0.029224618,2.360347247818141,-1.78E-05,-3.14E-04,-5.93E-06,9.916170638741798,-0.288073779,-0.002209876,-60.55567497,-15.70762174,-17.40988775,-103.8152882,42.492477111816406,-50.04927906,-2.27E-04,0.00192543,-9.58E-04,45,1.5,1,1500,1.2081577777862549,248.7803192138672,149.39999389648438,-86.9111501,40.4279458,-82.125,9.916170638741798,-0.288073779,-0.002209876,-0.021397445,0.015109574042477654,1.467812446949696E-4,Classroom
71,-0.924459125,0.013418316208187816,-0.00543996,0.3810061008027456,1.6692224291272424E-4,0.028958721755488404,2.3597353754691706,-2.97E-05,2.9652779560210635E-5,-2.19E-04,9.945630860560149,-0.287042888,-0.003162359,-60.59410503,-15.6774877,-17.36743172,-103.8540839,42.52407512664795,-50.00804302,0.016777158940880044,6.892443860618813E-4,-0.001422439,45,1.5,1,1500,1.2081577777862549,248.7803192138672,149.39999389648438,-86.9111501,40.4279458,-61.44444444,9.945630860560149,-0.287042888,-0.003162359,-0.021409306,0.015453546253729213,-6.67E-05,Classroom
72,-0.924301432,0.013162915839008915,-0.005377157,0.38139829791865304,1.004218574780459E-4,0.028438515,2.3588908667703277,1.482638978010532E-4,1.779166773612638E-5,1.8384723101281424E-4,9.969491371741661,-0.281225685,-8.51E-04,-60.59861893,-15.67358368,-17.31667976,-103.8587193,42.525539016723634,-49.95631512,0.011730916,0.002127008,1.9736452456518502E-4,45,1.5,1,1500,1.2081577777862549,248.7803192138672,149.39999389648438,-86.9111501,40.4279458,-80.5,9.969491371741661,-0.281225685,-8.51E-04,-0.02123139,0.015441685146426113,3.36559024273228E-4,Classroom
73,-0.924218452,0.013103831993434036,-0.005311615,0.38160231275465883,1.82791681987351E-4,0.028279223488372505,2.358449183621453,1.957083450973902E-4,-1.78E-05,2.9652779560210635E-5,9.967723837176573,-0.281871024,-0.002442189,-60.53408062,-15.65357566,-17.32668369,-103.7940599,42.547011070251465,-49.96717308,6.879047282691141E-4,1.2868787478474738E-4,-4.91E-04,45,1.5,1,1500,1.2081577777862549,248.7803192138672,149.39999389648438,-86.9111501,40.4279458,-94.44444444,9.967723837176573,-0.281871024,-0.002442189,-0.021183945,0.015406101788348944,1.823645835579599E-4,Classroom
74,-0.924176944,0.013040555315544305,-0.005296683,0.381704952,1.6510091839698414E-4,0.028150748913583247,2.358228019140299,1.1268055780781704E-4,-1.25E-04,4.1513904947245E-5,9.958895952,-0.281069545,-0.002671598,-60.59459282,-15.65991964,-17.26421974,-103.8548159,42.53969108581543,-49.90348907,-0.004658477,-3.19E-04,-6.69E-04,45,1.5,1,1500,1.2081577777862549,248.7803192138672,149.39999389648438,-86.9111501,40.4279458,-79.77777778,9.958895952,-0.281069545,-0.002671598,-0.021266973,0.015299352,1.9422571064036303E-4,Classroom
75,-0.924190082,0.013047566,-0.005304255,0.38167302353868204,1.55585828977264E-4,0.028169553781163346,2.3582972021936213,1.957083450973902E-4,-2.97E-05,3.024583515141485E-4,9.956119870676577,-0.280122868,-0.002000795,-60.5455489,-15.68078168,-17.30106371,-103.8052839,42.51858531951904,-49.94155323,-0.001651542,1.5834523636160545E-4,-8.80E-04,45,1.5,1,1500,1.2081577777862549,248.7803192138672,149.39999389648438,-86.9111501,40.4279458,-68.625,9.956119870676577,-0.280122868,-0.002000795,-0.021183945,0.015394240599668142,4.5517014760017684E-4,Classroom
76,-0.924215051,0.013046050426161405,-0.005346637,0.3816120395961317,7.419739624605453E-5,0.028199128,2.358430149485764,2.0756945692147446E-4,-5.34E-05,1.779166773612638E-5,9.950152406414736,-0.282100434,-5.84E-04,-60.54225491,-15.6768777,-17.36767563,-103.802112,42.52297726,-50.00767696,-0.002802349,-9.38E-04,6.334015605654748E-4,45,1.5,1,1500,1.2081577777862549,248.7803192138672,149.39999389648438,-86.9111501,40.4279458,-88,9.950152406414736,-0.282100434,-5.84E-04,-0.021172084,0.015370518403145874,1.7050345930117136E-4,Classroom
77,-0.924233924,0.013043915154412389,-0.005370903,0.3815660582712063,2.6298477515332215E-5,0.028213707425703224,2.3585302279545712,1.4096475206315517E-4,-9.40E-05,3.5241188015788794E-5,9.952658532892617,-0.282103337,-0.001094775,-60.54432896,-15.70627971,-17.3503516,-103.8045515,42.49430728912353,-49.989133,2.463047321026142E-4,-0.001003024,-9.21E-04,45,1.5,1,1500,1.2081577777862549,248.7803192138672,149.39999389648438,-86.9111501,40.4279458,-92.875,9.952658532892617,-0.282103337,-0.001094775,-0.021238689,0.015329916952536084,1.879529971539831E-4,Classroom
78,-0.924232655,0.013058953457376331,-0.005385187,0.38156840060521097,1.1433353173283782E-5,0.028252411308219132,2.3585251349847294,1.719861214492217E-4,5.930555912042127E-6,5.337500320837914E-5,9.954307880216431,-0.282231107,-7.93E-04,-60.53530083,-15.67821974,-17.43184771,-103.7943044,42.521513290405274,-50.07136112,0.001176612,-8.33E-04,-5.96E-04,45,1.5,1,1500,1.2081577777862549,248.7803192138672,149.39999389648438,-86.9111501,40.4279458,-94.66666667,9.954307880216431,-0.282231107,-7.93E-04,-0.021207667,0.015429823984871211,2.0608680607588257E-4,Classroom
79,-0.924255931,0.013096330316683042,-0.005424906,0.3815100259572557,-3.54E-05,0.028351806954128072,2.3586515130348578,1.2454167415288468E-4,-3.14E-04,1.0081943920225773E-4,9.954394803463835,-0.283212631,-0.001791713,-60.50553288,-15.68261171,-17.47637766,-103.7658778,42.51858528137207,-50.11601311,2.2399309769417477E-4,-8.81E-04,-0.00206088,45,1.5,1,1500,1.2081577777862549,248.7803192138672,149.39999389648438,-86.9111501,40.4279458,-69.875,9.954394803463835,-0.283212631,-0.001791713,-0.021255112,0.015109573952057987,2.535312901052095E-4,Classroom
80,-0.924230963,0.013018781997408102,-0.005465242,0.3815726007072671,-1.67E-04,0.028239219422334608,2.358518605093354,1.2454167641337636E-4,-1.72E-04,1.0081944824422448E-4,9.947985880583236,-0.281438341,0.002250531,-60.51797688,-15.67150968,-17.45575977,-103.7779559,42.52907726287842,-50.09502911,-0.003533206,-3.10E-04,6.715268624530545E-4,45,1.5,1,13.112000465393066,0.2734377086162567,68.01665496826172,149.39999389648438,-86.9110106,40.4279877,-108.6666667,9.947985880583236,-0.281438341,0.002250531,-0.021255112,0.015251907312030931,2.5353129180057826E-4,Classroom
81,-0.924348552,0.013265505586796015,-0.005521647,0.3812781983208888,-9.24E-05,0.028738394017937114,2.359151641142021,1.957083450973902E-4,-4.57E-04,-3.85E-04,9.918477095090426,-0.286819482,-0.004348495,-60.54835499,-15.67553572,-17.37889969,-103.808456,42.52468517303467,-50.01902298,-0.016912349,-6.45E-04,-0.005694716,45,1.5,1,13.112000465393066,0.2734377086162567,68.01665496826172,149.39999389648438,-86.9110106,40.4279877,-102,9.918477095090426,-0.286819482,-0.004348495,-0.021183946,0.014967241,-2.33E-04,Classroom
82,-0.924471849,0.013514229629948301,-0.00559834,0.38096937942273407,-5.41E-05,0.029256768054464487,2.3598161669610773,1.0081943694176604E-4,-5.34E-05,4.685139125303447E-4,9.898799443,-0.294238779,7.143618750331688E-4,-60.46283302,-15.70823174,-17.39317366,-103.7226898,42.49223308563232,-50.03305294,-0.009095266,-0.004887318,6.14325877604554E-4,45,1.5,1,13.112000465393066,0.2734377086162567,68.01665496826172,149.39999389648438,-86.9110106,40.4279877,-91,9.898799443,-0.294238779,7.143618750331688E-4,-0.021278835,0.015370518520691441,6.212257069210043E-4,Classroom
83,-0.924456038,0.013512507686843572,-0.005596655,0.3810080350602715,-5.10E-05,0.029252349787834777,2.3597326000917307,4.151389138429489E-5,-1.72E-04,1.6012500962513744E-4,9.900620247553853,-0.290301077,-9.55E-04,-60.39585491,-15.74104975,-17.39963961,-103.6558337,42.45929321289063,-50.03915295,-6.76E-04,-3.17E-04,-0.001167899,45,1.5,1,13.112000465393066,0.2734377086162567,68.01665496826172,149.39999389648438,-86.9110106,40.4279877,-91.33333333,9.900620247553853,-0.290301077,-9.55E-04,-0.02133814,0.015251907312030931,3.128368079716575E-4,Classroom
84,-0.924445418,0.013473666,-0.005585491,0.38103529319022467,-5.91E-05,0.029172004354231566,2.359674199113568,5.930553651550441E-6,-1.72E-04,1.2454167415288468E-4,9.907217988690126,-0.289069819,-1.42E-04,-60.44526463,-15.7660597,-17.24591953,-103.7059763,42.43355113983154,-49.88628681,0.003384849,3.8611078725277796E-5,-7.37E-04,45,1.5,1,13.112000465393066,0.2734377086162567,68.01665496826172,149.39999389648438,-86.9110106,40.4279877,-91,9.907217988690126,-0.289069819,-1.42E-04,-0.021373723,0.015251907348198798,2.772534792808798E-4,Classroom
85,-0.924512348,0.013579220755152333,-0.005574875,0.38086920745164443,3.569797742786638E-5,0.029359098,2.3600309658976433,7.709722459605597E-5,-1.60E-04,-2.97E-05,9.909375542575873,-0.291212905,-0.002140182,-60.45148682,-15.82022775,-17.24689568,-103.7115881,42.37730918884277,-49.88653111,0.001497945,-1.97E-04,-0.00212212,45,1.5,1,13.112000465393066,0.2734377086162567,68.01665496826172,149.39999389648438,-86.9110106,40.4279877,-85.88888889,9.909375542575873,-0.291212905,-0.002140182,-0.021302556,0.015263768419334032,1.2305901822118648E-4,Classroom
86,-0.924514182,0.013582529741912507,-0.005548114,0.3808650119373432,8.757456604404121E-5,0.029344842446824677,2.3600393602481256,5.873531335964799E-5,-1.17E-04,-1.17E-04,9.915735134,-0.288837506,-9.79E-04,-60.5004089,-15.8230337,-17.27324762,-103.7598998,42.376577110290526,-49.9132489,4.4341270740215597E-4,0.00237693,3.7678737862734124E-4,45,1.5,1,13.112000465393066,0.2734377086162567,68.01665496826172,149.39999389648438,-86.9110106,40.4279877,-93.75,9.915735134,-0.288837506,-9.79E-04,-0.021320918,0.015306422791372124,3.524118018014213E-5,Classroom
87,-0.924517648,0.013566826,-0.00557972,0.3808567547103734,1.6910591089248713E-5,0.029339877147119022,2.360058303018218,5.337500546887083E-5,-1.72E-04,3.9734723932534745E-4,9.917619779271988,-0.296166975,-0.003115897,-60.48235298,-15.8321837,-17.25567966,-103.7420879,42.36693920135498,-49.89580315,0.0023369,-0.005099407,-0.002866115,45,1.5,1,13.112000465393066,0.2734377086162567,68.01665496826172,149.39999389648438,-86.9110106,40.4279877,-98.55555556,9.917619779271988,-0.296166975,-0.003115897,-0.021326279,0.015251907293946997,5.500590614070302E-4,Classroom
88,-0.924468451,0.013483733987634621,-0.005511494,0.3809801400865166,8.368796218225893E-5,0.029134224431173316,2.359791667716017,1.6012500962513744E-4,-3.26E-04,5.3375014510837576E-5,9.912845694903032,-0.287696271,-0.00299974,-60.42220707,-15.86548973,-17.32131565,-103.6821857,42.33509724,-49.961805,-0.001072837,0.00132798,-0.002087886,45,1.5,1,13.112000465393066,0.2734377086162567,68.01665496826172,149.39999389648438,-86.9110106,40.4279877,-117.25,9.912845694903032,-0.287696271,-0.00299974,-0.021219529,0.015097712862838819,2.0608681059686593E-4,Classroom
89,-0.924509672,0.013503946517639368,-0.005512543,0.3808793983991864,9.398772114048909E-5,0.029172422,2.360009244344767,1.2454167415288468E-4,-1.25E-04,-6.52E-05,9.917953583800678,-0.290025206,-0.002790659,-60.49455276,-15.86536772,-17.25994968,-103.7550203,42.334365158081056,-49.89934116,0.002873828,-5.60E-04,-0.001776453,45,1.5,1,13.112000465393066,0.2734377086162567,68.01665496826172,149.39999389648438,-86.9110106,40.4279877,-111,9.917953583800678,-0.290025206,-0.002790659,-0.021255112,0.015299351759327269,8.747568613967126E-5,Classroom
90,-0.924428789,0.013442684082513295,-0.005409371,0.38107927447383844,2.443795704149451E-4,0.028980451211043933,2.3595757947384732,4.151389138429489E-5,1.779166773612638E-5,-1.36E-04,9.953314029253447,-0.286195394,-0.004302479,-60.41391083,-15.82327771,-17.28007971,-103.6732801,42.37669922,-49.92081299,0.0188053,0.002087928,-0.001860414,0,1.5,1,12.260000228881836,0.041196174919605255,0,149.39999389648438,-86.9110138,40.4279846,-88.125,9.953314029253447,-0.286195394,-0.004302479,-0.02133814,0.015441685137384146,1.6309019151026186E-5,Classroom
91,-0.924462482,0.013252102,-0.005487085,0.3810029698228373,-4.71E-05,0.028687229108752557,2.3597467940987893,2.9652779560210635E-5,-2.19E-04,2.668750205628791E-4,9.937938403157355,-0.284179632,-4.21E-04,-60.49809086,-15.82949978,-17.2837397,-103.75807,42.369379386901855,-49.92374119,-0.007664893,0.001094719,-5.27E-04,0,1.5,1,12.260000228881836,0.041196174919605255,0,149.39999389648438,-86.9110138,40.4279846,-95.33333333,9.937938403157355,-0.284179632,-4.21E-04,-0.021350001,0.015204462909944427,4.1958682456062833E-4,Classroom
92,-0.924580902,0.013457473864760792,-0.005500424,0.38070799222270263,7.545417732226005E-5,0.029077187560281707,2.3603808069692076,-5.93E-06,6.523611277197172E-5,-1.72E-04,9.916455287377811,-0.293297911,-0.002018218,-60.48869675,-15.86792966,-17.26800169,-103.7483101,42.33155941009522,-49.90885715,-0.010034941,-0.00492275,-7.51E-04,0,1.5,1,12.260000228881836,0.041196174919605255,0,149.39999389648438,-86.9110138,40.4279846,-94.25,9.916455287377811,-0.293297911,-0.002018218,-0.021385584,0.015489129575638517,-1.93E-05,Classroom
93,-0.924896308,0.013768674001025343,-0.005700281,0.3799266201778523,-8.24E-05,0.029804688561888573,2.362068585979128,-0.001097153,-3.85E-04,-5.99E-04,9.914527013463882,-0.295670407,0.001623286,-60.46417488,-15.85316775,-17.29301172,-103.7234219,42.34632106781006,-49.93252502,-0.002526218,7.487101462280866E-4,-4.33E-04,0,1.5,1,12.260000228881836,0.041196174919605255,0,149.39999389648438,-86.9110138,40.4279846,-107.5555556,9.914527013463882,-0.295670407,0.001623286,-0.022476807,0.015038407308239382,-4.46E-04,Classroom
94,-0.925038172,0.013860880135043153,-0.00579146,0.37957683871093306,-1.92E-04,0.030044781,2.3628251737761268,5.930555912042127E-6,1.9570834057640682E-4,-2.97E-05,9.914651907763435,-0.296779701,0.001437436,-60.4595388,-15.84279767,-17.25824171,-103.7192742,42.35681339263916,-49.8982431,-5.79E-05,8.800599760222204E-4,3.361020234946921E-4,0,1.5,1,12.260000228881836,0.041196174919605255,0,149.39999389648438,-86.9110138,40.4279846,-104.25,9.914651907763435,-0.296779701,0.001437436,-0.021373723,0.015619601710762793,1.2305903630511998E-4,Classroom
95,-0.924963838,0.013761985599278258,-0.005712825,0.37976283436784375,-1.16E-04,0.029802109867047805,2.362423369517693,-1.53E-04,-4.58E-04,-3.52E-05,9.917494857195512,-0.295638465,-5.14E-04,-60.48735512,-15.83218372,-17.28203173,-103.7475781,42.36889133453369,-49.92166718,0.001030729,3.741882168329679E-4,-0.001663306,0,1.5,1,12.260000228881836,0.041196174919605255,0,149.39999389648438,-86.9110138,40.4279846,-111.2222222,9.917494857195512,-0.295638465,-5.14E-04,-0.021532365,0.014965758032093827,1.1747060377204504E-4,Classroom
96,-0.925009874,0.013543324915746462,-0.005810114,0.3796564383992871,-4.66E-04,0.029471257810019753,2.3626603408924582,-7.41E-04,-0.001464847,4.803750333963957E-4,9.942337795368676,-0.290661162,0.017528006125148838,-60.49418659,-15.88171576,-17.27654165,-103.7545318,42.31691925048828,-49.91764133,0.013192723098310452,0.002140052,0.012981918296840006,0,1.5,1,12.260000228881836,0.041196174919605255,0,149.39999389648438,-86.9110138,40.4279846,-99.33333333,9.942337795368676,-0.290661162,0.017528006125148838,-0.022120973,0.013959046145810665,6.330868040518926E-4,Classroom
97,-0.925879933,0.011619197014827751,-0.007004665,0.37757286776616733,-0.004198344,0.026808077885398587,2.3672258090047005,-0.004726653,-0.002520486,0.002484903,9.962008929947048,-0.265864665,0.029646027620172002,-60.33400097,-16.06678966,-17.41952568,-103.593492,42.13208927154541,-50.05842899,0.00827281,0.001048247,-0.012074449,0,1.5,1,12.260000228881836,0.041196174919605255,0,149.39999389648438,-86.9110138,40.4279846,-109.5,9.962008929947048,-0.265864665,0.029646027620172002,-0.026106307,0.012903407198553271,0.002637615,Classroom
98,-0.925760065,0.011298025054043358,-0.006961924,0.37787784737290686,-0.00435335,0.026182791,2.366571343060836,0.001796958,-5.34E-05,6.227084001508153E-4,9.970044071234545,-0.261015133,0.03889208,-60.30520863,-16.06715567,-17.51797962,-103.565432,42.132699165344235,-50.15785904,0.00681217,-7.64E-05,-0.004428261,0,1.5,1,12.260000228881836,0.041196174919605255,0,149.39999389648438,-86.9110138,40.4279846,-101.7777778,9.970044071234545,-0.261015133,0.03889208,-0.019582696,0.015370518434792757,7.754201968019665E-4,Classroom
99,-0.925562317,0.011060819536158182,-0.006829515,0.3783719328421991,-0.004273532,0.025645929,2.3655046560231923,-1.78E-05,0.001049708,-5.87E-04,9.966255930753855,-0.255258381,0.049605054103617124,-60.23774269,-16.06581362,-17.51883366,-103.4972341,42.13294326782226,-50.15883503,-0.001526314,7.485928176676186E-4,0.006710777,0,1.5,1,12.260000228881836,0.041196174919605255,0,149.39999389648438,-86.9110138,40.4279846,-111.875,9.966255930753855,-0.255258381,0.049605054103617124,-0.021397446,0.016473601834432593,-4.34E-04,Classroom
100,-0.925565273,0.014235599735046475,-0.006452125,0.3782629596376882,-0.001174641,0.031237360343192386,2.3656717434670163,-0.001583458,0.001785097,-0.005509486,9.954284538343115,-0.312158814,0.003780893,-60.43904278,-15.90391973,-17.34888765,-103.6987781,42.29617923736572,-49.98925488,-0.005341409,-3.55E-04,-0.008594444,0,1.5,1,12.260000228881836,0.041196174919605255,0,149.39999389648438,-86.9110138,40.4279846,-90.77777778,9.954284538343115,-0.312158814,0.003780893,-0.022963113,0.017208990813300774,-0.005356775,Classroom
101,-0.925559393,0.014516093,-0.006480364,0.37826806191101814,-0.001014684,0.031778864580595374,2.365656121263226,-1.84E-04,2.668750160418957E-4,-6.23E-04,9.950137740200006,-0.320690505,0.009812315,-60.41781483,-15.8447497,-17.3720677,-103.6776722,42.355227355957034,-50.01170315,-0.001625144,-0.002972642,0.0011637,0,1.5,1,12.260000228881836,0.041196174919605255,0,149.39999389648438,-86.9110138,40.4279846,-99,9.950137740200006,-0.320690505,0.009812315,-0.021563501,0.015690769,-4.70E-04,Classroom
102,-0.925627859,0.014532601650695778,-0.006533043,0.37809888512185474,-0.001105575,0.031849049,2.3660226678385317,2.075694320560659E-4,-1.72E-04,6.345694938909661E-4,9.955408346305774,-0.315324077,0.015138087967959983,-60.42757481,-15.88037371,-17.36938374,-103.687676,42.31874916,-50.00950684,0.002990815,-3.28E-04,0.002418791,0,1.5,1,12.260000228881836,0.041196174919605255,0,149.39999389648438,-86.9110138,40.4279846,-106.2222222,9.955408346305774,-0.315324077,0.015138087967959983,-0.021172085,0.015251907,7.872813272751072E-4,Classroom
103,-0.925404464,0.014418999908618557,-0.006578909,0.37864875099033984,-0.001257538,0.031674051422227935,2.364837785368984,-1.78E-05,3.4990282141540236E-4,3.617638993321113E-4,9.955274749,-0.314679408,0.008653654,-60.43818893,-15.93246769,-17.35315775,-103.6981683,42.26689914703369,-49.99352489,-9.67E-04,0.001376434,-0.001630229,0,1.5,1,12.260000228881836,0.041196174919605255,0,149.39999389648438,-86.9110138,40.4279846,-113.625,9.955274749,-0.314679408,0.008653654,-0.021397446,0.015773796187080805,5.144757694492424E-4,Classroom
104,-0.925313445,0.01441268,-0.006611018,0.378871409,-0.001314094,0.031687216,2.3643575379481683,9.397650137543678E-5,-4.70E-05,-3.05E-04,9.952818158,-0.315829357,0.014194316637602825,-60.44477669,-15.86805176,-17.30496767,-103.7046339,42.332779235839844,-49.9449691,-0.001090123,-1.42E-04,7.463097840977403E-4,0,1.5,1,12.260000228881836,0.041196174919605255,0,149.39999389648438,-86.9110138,40.4279846,-127.8888889,9.952818158,-0.315829357,0.014194316637602825,-0.021285677,0.015376905158448678,-1.53E-04,Classroom
105,-0.925390514,0.014400374813421258,-0.006663125,0.37868267268810457,-0.001426379,0.031703643,2.364767093102909,5.337500320837914E-5,-3.14E-04,-1.13E-04,9.951612963259798,-0.315817743,0.014795426244551352,-60.41769272,-15.89232965,-17.34913168,-103.6774287,42.307769203186034,-49.98803505,-0.00103469,-7.57E-05,6.909711394929191E-4,45,1.5,1,13.215999603271484,0,0,149.39999389648438,-86.9110142,40.4279859,-107.875,9.951612963259798,-0.315817743,0.014795426244551352,-0.021326279,0.015109574,4.003125692726773E-5,Classroom
106,-0.925552758,0.014462986273817646,-0.006764776,0.3782817903652932,-0.001580976,0.031895902695007694,2.3656347353481553,1.1268056232880041E-4,-4.15E-05,2.0756945918196614E-4,9.920360973,-0.318529996,0.014075256331972959,-60.47686272,-15.89867369,-17.24384562,-103.7374522,42.30020515441895,-49.88396889,-0.017554042,-0.001323408,-0.001545728,45,1.5,1,13.215999603271484,0,0,149.39999389648438,-86.9110142,40.4279859,-113.2222222,9.920360973,-0.318529996,0.014075256331972959,-0.021266973,0.015382379537574875,3.6028125583311744E-4,Classroom
107,-0.925715442,0.014678458,-0.006800792,0.37787458011247577,-0.001498758,0.032321473,2.366510851869305,-5.93E-06,-8.90E-05,1.1268056232880041E-4,9.896066952677605,-0.323129791,0.013238929968510383,-60.4494128,-15.89318367,-17.29837973,-103.7098798,42.30642730712891,-49.93813713,-0.011982918,-0.002656929,-0.001520462,45,1.5,1,13.215999603271484,0,0,149.39999389648438,-86.9110142,40.4279859,-104.25,9.896066952677605,-0.323129791,0.013238929968510383,-0.021385584,0.015334935126446405,2.653923538938454E-4,Classroom
108,-0.925791147,0.014782332905649561,-0.006809875,0.3776848209135741,-0.001443694,0.032520389,2.3669187582812263,1.779166321514301E-5,-1.25E-04,7.709724267998945E-5,9.896737410471989,-0.322780845,0.013942793,-60.43818863,-15.86451368,-17.31606976,-103.6985339,42.33534130096436,-49.95692486,-9.82E-04,-8.99E-04,-5.88E-04,45,1.5,1,13.215999603271484,0,0,149.39999389648438,-86.9110142,40.4279859,-96.22222222,9.896737410471989,-0.322780845,0.013942793,-0.021361862,0.015299351768369236,2.2980903594040322E-4,Classroom
109,-0.925812718,0.014901336834051655,-0.006739581,0.3776285084127222,-0.001225505,0.032687603,2.3670358843016395,-1.25E-04,-5.93E-06,5.930551391058755E-6,9.901947308512566,-0.324616591,0.009916856,-60.46966457,-15.86256173,-17.29532967,-103.7285463,42.338025398254395,-49.93667305,0.002237996,-6.95E-04,-0.002102905,45,1.5,1,13.215999603271484,0,0,149.39999389648438,-86.9110142,40.4279859,-103.6666667,9.901947308512566,-0.324616591,0.009916856,-0.021504195,0.015417963,1.5864235990979139E-4,Classroom
110,-0.925766444,0.014930776410817522,-0.006735747,0.3777407734718138,-0.001192212,0.032739371,2.3667925005977595,-1.01E-04,1.8384723327330595E-4,-8.90E-05,9.907316652316492,-0.322824878,0.01161274,-60.44367886,-15.84926371,-17.33802979,-103.7036581,42.34998126983643,-49.97778698,0.002419277,0.002055918,6.617398715568978E-4,45,1.5,1,13.215999603271484,0,0,149.39999389648438,-86.9110142,40.4279859,-100.25,9.907316652316492,-0.322824878,0.01161274,-0.021480473,0.015607740657711491,6.375348170568208E-5,Classroom
111,-0.925620683,0.014803462815516203,-0.006641035,0.3781045466950796,-0.001100267,0.032432476583036406,2.3660069530450025,1.779166773612638E-5,1.0081945050471616E-4,-2.43E-04,9.945938675148973,-0.320150377,0.011333964406218814,-60.40293079,-15.87390771,-17.3191197,-103.6631545,42.326557121276856,-49.95851101,0.021110442078229295,0.001842778,1.7821611565293618E-4,45,1.5,1,13.215999603271484,0,0,149.39999389648438,-86.9110142,40.4279859,-138.25,9.945938675148973,-0.320150377,0.011333964406218814,-0.021361862,0.015524712879463885,-9.04E-05,Classroom
112,-0.925498774,0.014596995563038345,-0.006578496,0.3784118456747925,-0.00113006,0.032003161578791815,2.365345966468737,-5.34E-05,6.523611051148002E-5,-4.15E-05,9.962830756474467,-0.318817483,0.009591618,-60.43501686,-15.90757971,-17.35547573,-103.6947525,42.29239719390869,-49.99596485,0.009500365,8.02402936139153E-5,-0.001798923,45,1.5,1,13.215999603271484,0,0,149.39999389648438,-86.9110142,40.4279859,-103.5555556,9.962830756474467,-0.318817483,0.009591618,-0.021433029,0.01548913,1.1119796177914855E-4,Classroom
113,-0.925462279,0.014514865926825084,-0.006548067,0.3785049236164643,-0.001132669,0.031828234,2.3651459354620714,-2.35E-05,1.1747062895805217E-4,7.048236707655284E-5,9.957987026103492,-0.314272863,0.012263216066696383,-60.4575869,-15.90648165,-17.31692368,-103.7178104,42.29373920440674,-49.95619305,-1.45E-04,0.002394892,0.001188946,45,1.5,1,13.215999603271484,0,0,149.39999389648438,-86.9110142,40.4279859,-106,9.957987026103492,-0.314272863,0.012263216066696383,-0.021403148,0.015541364026900668,2.2319418796821713E-4,Classroom
114,-0.925483237,0.014496947674858339,-0.006528948,0.3784547187749622,-0.001112562,0.03178053,2.3652544160491056,-5.34E-05,2.668750160418957E-4,-5.34E-05,9.956828450693667,-0.315928092,0.012658147779078612,-60.43831074,-15.89428167,-17.34620373,-103.698046,42.305573043823244,-49.98620506,-0.001704068,7.825522746854615E-4,0.001669216,45,1.5,1,13.215999603271484,0,0,149.39999389648438,-86.9110142,40.4279859,-110.75,9.956828450693667,-0.315928092,0.012658147779078612,-0.021433029,0.015690768454043033,9.933678496592832E-5,Classroom
115,-0.92558016,0.014445337503063448,-0.006608028,0.37821819712814775,-0.001306206,0.031744509,2.365768733533841,4.151389138429489E-5,-4.15E-05,-5.93E-06,9.952426104869657,-0.315835168,0.014679269833790897,-60.42708656,-15.92063367,-17.28788767,-103.6873105,42.279953193664554,-49.92849899,-0.002644391,4.067886801599299E-4,0.001767679,0,1.5,1,11.253999710083008,0.087023705,0,149.39999389648438,-86.9110179,40.4279764,-119.5555556,9.952426104869657,-0.315835168,0.014679269833790897,-0.02133814,0.015382379564700776,1.4678123847861746E-4,Classroom
116,-0.925696424,0.014496398,-0.006675862,0.37793039436479214,-0.00140312,0.031889951,2.366391265276566,1.3640278597696893E-4,5.930555912042127E-6,1.779166773612638E-5,9.920291363614277,-0.319180472,0.012820766891468117,-60.44648472,-15.89769771,-17.35669567,-103.7063425,42.30105926513672,-49.9958429,-0.017936938,-0.002023783,-0.001033239,0,1.5,1,11.253999710083008,0.087023705,0,149.39999389648438,-86.9110179,40.4279764,-104.625,9.920291363614277,-0.319180472,0.012820766891468117,-0.021243251,0.015429823993913178,1.7050346099654014E-4,Classroom
117,-0.925853886,0.014727600696451456,-0.006722575,0.3775347181894247,-0.001328604,0.032352868431401484,2.3672421904443537,-7.71E-05,-4.15E-05,-8.90E-05,9.895426163306603,-0.322593906,0.011964113226545474,-60.44538666,-15.90623773,-17.36669966,-103.705,42.295081253051755,-50.00682293,-0.012040972,-0.001853909,-0.001065439,0,1.5,1,11.253999710083008,0.087023705,0,149.39999389648438,-86.9110179,40.4279764,-90.44444444,9.895426163306603,-0.322593906,0.011964113226545474,-0.021456751,0.015382379555658809,6.375344610293802E-5,Classroom
118,-0.925951234,0.014869649559982772,-0.00674119,0.3772900162391292,-0.001264365,0.032629694,2.367768081646521,-1.72E-04,-5.34E-05,-1.96E-04,9.894208445132357,-0.323245947,0.011357195654180969,-60.40976261,-15.90989769,-17.34339775,-103.6699863,42.291543312072754,-49.98278915,-0.002231135,-1.78E-06,-9.26E-04,0,1.5,1,11.253999710083008,0.087023705,0,149.39999389648438,-86.9110179,40.4279764,-79,9.894208445132357,-0.323245947,0.011357195654180969,-0.021551639,0.015370518484523574,-4.30E-05,Classroom
119,-0.926000486,0.014925821232202562,-0.006723469,0.3771672159144022,-0.001193449,0.032720214171895703,2.3680316151924505,-1.25E-04,1.1268056232880041E-4,1.779166773612638E-5,9.900713290983033,-0.323966117,0.012263216113884147,-60.38743664,-15.93185771,-17.27959173,-103.6475384,42.268851127624515,-49.9194709,0.002180312,7.7303752158452E-5,2.84365206522849E-4,0,1.5,1,11.253999710083008,0.087023705,0,149.39999389648438,-86.9110179,40.4279764,-101.4444444,9.900713290983033,-0.323966117,0.012263216113884147,-0.021504195,0.015536574022934853,1.7050347455949025E-4,Classroom
120,-0.926056544,0.014825308758729292,-0.006769362,0.377032684,-0.0013591,0.032568443819735816,2.368325728814579,-7.71E-05,-4.15E-05,-1.78E-05,9.905173570207022,-0.321201594,0.012913691951131484,-60.45026665,-15.91636375,-17.26287758,-103.7096363,42.28397907,-49.90275681,0.003166976,0.001456551,-2.45E-04,45,1.5,1,12.96399974822998,0.2800843119621277,28.327129364013672,149.39999389648438,-86.9110098,40.4279878,-112.25,9.905173570207022,-0.321201594,0.012913691951131484,-0.021456751,0.015382379555658809,1.3492011817768938E-4,Classroom
121,-0.926057828,0.014819454428857392,-0.006729044,0.3770304944330049,-0.001288886,0.032527187350884224,2.3683295944362013,-5.34E-05,-5.93E-06,-2.19E-04,9.913931689216096,-0.321921765,0.012611685326103645,-60.43965267,-15.86658775,-17.33754177,-103.6997543,42.333877372741696,-49.97803097,0.003781448,9.137120061707728E-4,-4.20E-04,45,1.5,1,12.96399974822998,0.2800843119621277,28.327129364013672,149.39999389648438,-86.9110098,40.4279878,-99.66666667,9.913931689216096,-0.321921765,0.012611685326103645,-0.021433028,0.015417962913735978,-6.67E-05,Classroom
122,-0.926073925,0.014819765848537477,-0.006707658,0.3769913072196337,-0.001250402,0.032511576580313534,2.3684137234321008,-1.06E-04,5.873531335964799E-5,-2.35E-05,9.909866305,-0.322804551,0.012332909854379872,-60.47161686,-15.9064817,-17.29191366,-103.7312305,42.29337326049804,-49.93118305,-9.19E-04,-5.36E-04,2.3711143204799065E-4,45,1.5,1,12.96399974822998,0.2800843119621277,28.327129364013672,149.39999389648438,-86.9110098,40.4279878,-68.33333333,9.909866305,-0.322804551,0.012332909854379872,-0.021485377,0.015482628798613755,1.292176614067732E-4,Classroom
123,-0.926155731,0.014852375542582239,-0.00674114,0.37678843360502745,-0.001294976,0.032596963,2.368852029726343,-5.34E-05,-5.93E-06,1.0081945050471616E-4,9.908565392,-0.323733803,0.012216753431751836,-60.43440655,-15.9230737,-17.28300776,-103.694996,42.27592708587647,-49.9242292,-5.38E-04,-4.94E-04,-5.25E-04,45,1.5,1,12.96399974822998,0.2800843119621277,28.327129364013672,149.39999389648438,-86.9110098,40.4279878,-96.375,9.908565392,-0.323733803,0.012216753431751836,-0.021433028,0.015417962859484177,2.5353124772099035E-4,Classroom
124,-0.926201967,0.014814001101168614,-0.006781018,0.3766755163669586,-0.001401794,0.032555732,2.3690978091897317,-1.96E-04,-6.52E-05,1.0081943920225773E-4,9.911120785092844,-0.321817221,0.013407356753658268,-60.49016083,-15.89659974,-17.34059177,-103.7501402,42.30179111480713,-49.98034904,9.381562760732707E-4,0.001037588,-4.00E-04,45,1.5,1,12.96399974822998,0.2800843119621277,28.327129364013672,149.39999389648438,-86.9110098,40.4279878,-97.77777778,9.911120785092844,-0.321817221,0.013407356753658268,-0.021575362,0.015358657313926705,2.5353127371664476E-4,Classroom
125,-0.926192892,0.014773890710643773,-0.006807155,0.37669874394981606,-0.001479718,0.032501095562305266,2.369049162540621,-1.13E-04,-2.55E-04,1.0081947084914133E-4,9.914114720613053,-0.32240962,0.011734704226786633,-60.40244263,-15.91038572,-17.25543577,-103.662422,42.29129925,-49.89580303,0.001907876,-6.80E-05,-0.002848325,45,1.5,1,12.96399974822998,0.2800843119621277,28.327129364013672,149.39999389648438,-86.9110098,40.4279878,-95.25,9.914114720613053,-0.32240962,0.011734704226786633,-0.021492335,0.015168879497615457,2.5353129180057826E-4,Classroom
126,-0.926000787,0.014760944639667145,-0.006782665,0.37717176988286877,-0.001427485,0.032459411,2.3680270482035515,-7.71E-05,1.6012499832267901E-4,-6.52E-05,9.931895357891193,-0.32335339,0.014571825069492882,-60.42940472,-15.88842573,-17.36377172,-103.690116,42.31020923614502,-50.00462692,0.012009361415233427,-0.001163587,4.944366592805362E-4,45,1.5,1,12.96399974822998,0.2800843119621277,28.327129364013672,149.39999389648438,-86.9110098,40.4279878,-90.55555556,9.931895357891193,-0.32335339,0.014571825069492882,-0.021456751,0.015584018461189224,8.747572569827576E-5,Classroom
127,-0.925940691,0.014600539589029493,-0.006731918,0.37732653912988684,-0.001449133,0.032124247,2.3676951024138813,-1.36E-04,7.709722685654765E-5,-5.34E-05,9.963753901995146,-0.317555175,0.015645378762621058,-60.40524883,-15.87073567,-17.25714348,-103.6651065,42.32997337341308,-49.89665676,0.013799889573773134,0.002310892,0.001281298,45,1.5,1,12.96399974822998,0.2800843119621277,28.327129364013672,149.39999389648438,-86.9110098,40.4279878,-105.25,9.963753901995146,-0.317555175,0.015645378762621058,-0.021516056,0.015500990701025551,9.933680983133686E-5,Classroom
128,-0.925912656,0.014553748469040232,-0.006666186,0.377398269,-0.001360225,0.031988057,2.367539563225311,-1.01E-04,2.4315279239372722E-4,2.965278182070232E-5,9.966373508416334,-0.319656713,0.013238929954382311,-60.40305275,-15.86902766,-17.24579773,-103.6635204,42.330095024108886,-49.88592102,0.00329,-4.55E-04,-1.98E-04,45,1.5,1,12.96399974822998,0.2800843119621277,28.327129364013672,149.39999389648438,-86.9110098,40.4279878,-118.4444444,9.966373508416334,-0.319656713,0.013238929954382311,-0.021480473,0.015667046275604696,1.8236458694869743E-4,Classroom
129,-0.925882223,0.014397376949347339,-0.006642346,0.3774792100619344,-0.001431404,0.031680474,2.367367573154783,-3.85E-04,-2.91E-04,6.70152820321252E-4,9.964419170490746,-0.315103378,0.005868804,-60.42354877,-15.9080677,-17.32570772,-103.6835284,42.29203121185303,-49.9655872,1.814388534397755E-4,2.740338010695374E-5,-0.007928746,45,1.5,1,12.96399974822998,0.2800843119621277,28.327129364013672,149.39999389648438,-86.9110098,40.4279878,-102,9.964419170490746,-0.315103378,0.005868804,-0.02176514,0.015133296166664189,8.228646237538784E-4,Classroom
130,-0.913866728,0.014072978172849105,-0.005572022,0.40484799864222704,0.001192759,0.030245021148358735,2.3075287573545884,0.14685835587132035,-0.001749514,0.002057903,9.951206364677947,-0.295719774,0.010724143640508929,-60.39378094,-14.38404372,-17.39097775,-103.6540044,43.815933036804196,-50.03232098,-0.00941296,0.005138218,0.021538202750306684,0,1.5,1,12.758000373840332,0.067710906,0,149.39999389648438,-86.9110184,40.4279881,-100.5,9.951206364677947,-0.295719774,0.010724143640508929,0.12547870135404965,0.013674379458076782,0.002210615,Classroom
131,-0.894508092,0.012503115952802965,-0.006305193,0.44682956830813336,-1.07E-04,0.028006277,2.2150583381836233,0.016962759,1.1747073865710543E-5,-2.94E-04,9.927748541230137,-0.278313733,-0.007436916,-60.4872327,-11.08430983,-17.51224575,-103.7472125,47.11505706787109,-50.15249115,-0.012843673,8.171805395529821E-4,-0.007493474,0,1.5,1,12.758000373840332,0.067710906,0,149.39999389648438,-86.9110184,40.4279881,-91.44444444,9.927748541230137,-0.278313733,-0.007436916,-0.004416895,0.015435640521060962,-1.41E-04,Classroom
132,-0.893676689,0.012743155,-0.006084187,0.44848877799163744,5.557849507602648E-4,0.028237533439131615,2.2113369089885824,-0.004596181,-3.26E-04,-2.55E-04,9.906840398473648,-0.28187683,-0.014873832,-60.47088509,-10.93327378,-17.4694236,-103.730376,47.26767902374267,-50.10869301,-0.00865528,-0.001786275,-0.009307,0,1.5,1,12.758000373840332,0.067710906,0,149.39999389648438,-86.9110184,40.4279881,-81,9.906840398473648,-0.28187683,-0.014873832,-0.025975835,0.015097713,-1.02E-04,Classroom
133,-0.893409596,0.012796174246564653,-0.006182651,0.4490175741968803,4.4402350279785347E-4,0.028420361192915047,2.210153507954866,-7.29E-04,2.668750160418957E-4,1.957083270134567E-4,9.900495381031222,-0.279385274,0.002871968,-60.4146426,-11.01415982,-17.56799957,-103.6743777,47.187525062561036,-50.2073912,-0.004665634,0.002223078,0.007315015,0,1.5,1,12.758000373840332,0.067710906,0,149.39999389648438,-86.9110184,40.4279881,-89.55555556,9.900495381031222,-0.279385274,0.002871968,-0.022109113,0.015690768459129138,3.4842018526300643E-4,Classroom
134,-0.893049316,0.012745590057694217,-0.00597634,0.44973840528321496,7.902777180735709E-4,0.028144153938131425,2.2085368124026696,-8.90E-05,3.6176391289506144E-4,4.092083647123818E-4,9.908092054348547,-0.279373659,-0.008273242,-60.45795296,-11.01989378,-17.50431562,-103.7174442,47.17849720001221,-50.14468307,0.001985059,-4.41E-04,-3.65E-04,0,1.5,1,12.758000373840332,0.067710906,0,149.39999389648438,-86.9110184,40.4279881,-103.125,9.908092054348547,-0.279373659,-0.008273242,-0.021468612,0.015785657375761607,5.619201658845165E-4,Classroom
135,-0.892872449,0.01259784,-0.005934828,0.4500942484846393,7.4261476797757E-4,0.027842581651887847,2.207742767426574,5.930555912042127E-6,-5.93E-06,6.52361150324634E-5,9.911074351338508,-0.275305278,-0.00606627,-60.46966465,-11.07003582,-17.48869974,-103.7295224,47.12957496643067,-50.12870094,0.001711855,7.510839156734133E-4,0.001373107,0,1.5,1,12.758000373840332,0.067710906,0,149.39999389648438,-86.9110184,40.4279881,-108.5555556,9.911074351338508,-0.275305278,-0.00606627,-0.021373723,0.015417962868526144,2.179479065975084E-4,Classroom
136,-0.892603469,0.012493478577330854,-0.005848242,0.45063129588238243,8.198442775360535E-4,0.027577658645013003,2.2065404179026777,-2.97E-05,2.075694501399994E-4,-2.97E-05,9.944783752,-0.271671649,-0.009508018,-60.4191568,-11.01220779,-17.47710964,-103.6790145,47.18825706481934,-50.11686703,0.019601673755830933,0.001873886,-8.93E-04,0,1.5,1,12.758000373840332,0.067710906,0,149.39999389648438,-86.9110184,40.4279881,-108.25,9.944783752,-0.271671649,-0.009508018,-0.021409307,0.015631462900008716,1.230590368702429E-4,Classroom
137,-0.892333225,0.012342551,-0.00579232,0.4511712205062792,8.001282174836446E-4,0.027257354441777015,2.205333163437334,-1.72E-04,1.482638932800698E-4,-9.67E-04,9.966681351,-0.26767961,-0.007294625,-60.44538685,-11.0155018,-17.51773579,-103.7048779,47.183621101379394,-50.15712708,0.010373708113883306,0.004055725,2.1410981211268787E-4,0,1.5,1,12.758000373840332,0.067710906,0,149.39999389648438,-86.9110184,40.4279881,-106.3333333,9.966681351,-0.26767961,-0.007294625,-0.02155164,0.015572157,-8.14E-04,Classroom
138,-0.892540926,0.012639857,-0.00598342,0.45074937094762485,7.141173528439537E-4,0.027960836,2.206274535,-3.85E-04,-8.90E-05,-7.65E-04,9.968412047450983,-0.279199426,-0.006716746,-60.4614909,-10.99683582,-17.5231036,-103.7219576,47.20277496337891,-50.16200722,0.002032836,-2.07E-04,6.66422326370929E-4,0,1.5,1,12.758000373840332,0.067710906,0,149.39999389648438,-86.9110184,40.4279881,-107.75,9.968412047450983,-0.279199426,-0.006716746,-0.02176514,0.015334935072194604,-6.12E-04,Classroom
139,-0.892330162,0.012513679,-0.005901558,0.4511709190109401,7.594417864275933E-4,0.027661399300960662,2.2053313232162624,2.0756945918196614E-4,1.364027904979523E-4,9.548195154017326E-4,9.963007880646048,-0.275322704,-0.007738923,-60.39927067,-11.02977583,-17.46039572,-103.6588842,47.17129901885986,-50.10112907,-0.00170392,3.930127736434196E-4,-1.15E-04,0,1.5,1,12.758000373840332,0.067710906,0,149.39999389648438,-86.9110184,40.4279881,-128.1111111,9.963007880646048,-0.275322704,-0.007738923,-0.021172084,0.015560296246583023,0.001107531,Classroom
140,-0.892101384,0.012330962049488265,-0.005820525,0.4516294515476777,7.533230936342778E-4,0.027261743,2.2043066024780273,-7.05E-05,1.5271182145135335E-4,1.9970007437782793E-4,9.959433277833808,-0.272012243,-0.008064161,-60.45404873,-11.01001185,-17.47149767,-103.7137841,47.191184997558594,-50.1107671,-0.001869183,-3.71E-04,-5.38E-04,0,1.5,1,12.758000373840332,0.067710906,0,149.39999389648438,-86.9110184,40.4279881,-109.6666667,9.959433277833808,-0.272012243,-0.008064161,-0.021450136,0.015576605246259043,3.5241186000908224E-4,Classroom
141,-0.892010793,0.012415327873189472,-0.005806287,0.4518061497257751,8.604065407727601E-4,0.027399221579860716,2.203907924948387,-8.90E-05,2.9652772778735578E-5,-8.90E-05,9.931985447707685,-0.275418531,-0.007590824,-60.4968708,-11.0413658,-17.56275373,-103.7574604,47.15897720336914,-50.2031208,-0.016642876,-0.002690298,0.001040017,0,1.5,1,12.064000129699707,0.093350977,0,149.39999389648438,-86.9110082,40.4279835,-102.5,9.931985447707685,-0.275418531,-0.007590824,-0.021468612,0.015453546,6.37534427122005E-5,Classroom
142,-0.892151585,0.012612375195671632,-0.005953889,0.45152076181856177,7.662442789720462E-4,0.027884508,2.204545497894287,2.9652779560210635E-5,1.2454167867386804E-4,-5.93E-06,9.903268591871539,-0.277811355,-0.007134909,-60.47698498,-11.05795787,-17.41244972,-103.7372079,47.142263107299804,-50.05208523,-0.013550777,-0.001135922,5.441641127600254E-4,0,1.5,1,12.064000129699707,0.093350977,0,149.39999389648438,-86.9110082,40.4279835,-118.6666667,9.903268591871539,-0.277811355,-0.007134909,-0.021350001,0.015548435121195988,1.4678123791349456E-4,Classroom
143,-0.892242393,0.012683999652350411,-0.006024647,0.4513383614785463,6.989330902144096E-4,0.028076397,2.204953899661314,2.9652779560210635E-5,-5.93E-06,-5.93E-06,9.902040259352008,-0.278322444,-0.008366168,-60.41915672,-11.09687585,-17.45136774,-103.6798684,47.10249107,-50.09185703,-0.001645875,-8.82E-05,-0.001364688,0,1.5,1,12.064000129699707,0.093350977,0,149.39999389648438,-86.9110082,40.4279835,-108,9.902040259352008,-0.278322444,-0.008366168,-0.021350001,0.015417962895652044,1.467812396088633E-4,Classroom
144,-0.892168409,0.012661781975800552,-0.006009268,0.45148536620788204,7.109190472989407E-4,0.028022717431332302,2.2046245949939616,-1.48E-04,-1.60E-04,1.245416990182932E-4,9.905234596104298,-0.277346729,-0.007361414,-60.46661476,-11.06332586,-17.46442167,-103.7272042,47.13835891723633,-50.10430103,9.14657000199105E-4,3.496801968917106E-4,-2.46E-04,0,1.5,1,12.064000129699707,0.093350977,0,149.39999389648438,-86.9110082,40.4279835,-98.44444444,9.905234596104298,-0.277346729,-0.007361414,-0.021527918,0.015263768401250098,2.772534984950591E-4,Classroom
145,-0.892282319,0.012799020919912649,-0.006074308,0.4512552578472397,7.113421994749709E-4,0.028326613304105776,2.2051380444498894,-1.48E-04,1.1268056232880041E-4,-0.001417403,9.908529052367577,-0.28019033,-0.007799682,-60.42171875,-11.01842979,-17.43672775,-103.6815769,47.18203514099121,-50.07758305,0.001480417,0.001055141,-7.87E-06,45,1.5,1,11.406000137329102,0.32439956068992615,236.5774383544922,149.39999389648438,-86.9110231,40.4279761,-116.5,9.908529052367577,-0.28019033,-0.007799682,-0.021527917,0.015536573986766987,-0.001264691,Classroom
146,-0.892101618,0.012540727157543586,-0.006063535,0.4516191375487059,5.082628739843325E-4,0.027855769306131938,2.204328296253982,5.3375014510837576E-5,-8.84E-04,0.002615375,9.923680231409165,-0.278206287,-0.006708034,-60.41647274,-11.0189178,-17.50712164,-103.6765736,47.180205001831055,-50.14614704,0.008834357,-0.003051857,-0.001829848,45,1.5,1,11.406000137329102,0.32439956068992615,236.5774383544922,149.39999389648438,-86.9110231,40.4279761,-109.8888889,9.923680231409165,-0.278206287,-0.006708034,-0.021326279,0.014540240611627843,0.002768087,Classroom
147,-0.892386085,0.012573465569288407,-0.006277324,0.45105320388830983,1.3860972829259712E-4,0.028107431672007136,2.2056003380747673,-6.23E-04,2.431527765702854E-4,-5.75E-04,9.914315094068213,-0.27979763,-0.001277721,-60.4641748,-11.01415978,-17.52712975,-103.7241542,47.18532894134521,-50.16737503,-0.004433132,-0.001049483,0.001363043,45,1.5,1,11.406000137329102,0.32439956068992615,236.5774383544922,149.39999389648438,-86.9110231,40.4279761,-95.75,9.914315094068213,-0.27979763,-0.001277721,-0.022002362,0.015667046,-4.23E-04,Classroom
148,-0.89251338,0.012352284089237163,-0.006440134,0.45080524162181373,-3.59E-04,0.027859108685289773,2.2061649294732844,-0.013183626,4.329305928815337E-4,-1.13E-04,9.914997508224932,-0.27607772,0.002906815,-60.45319469,-11.14299182,-17.48357567,-103.7130521,47.055643234252926,-50.12443085,0.001128826,-5.26E-04,0.001819251,45,1.5,1,11.406000137329102,0.32439956068992615,236.5774383544922,149.39999389648438,-86.9110231,40.4279761,-70.66666667,9.914997508224932,-0.27607772,0.002906815,-0.03456328,0.015856824078352996,4.003129422538055E-5,Classroom
149,-0.892845081,0.012457515926832714,-0.006306664,0.4501468999293244,-4.65E-05,0.027926562,2.207635006858307,2.4315278787274383E-4,-6.11E-04,1.3640278371647723E-4,9.91649011,-0.275865734,0.004210671,-60.39585495,-11.44628381,-17.46673983,-103.6562001,46.75320499420166,-50.10747322,-4.70E-04,0.0028189,-7.52E-04,45,1.5,1,11.406000137329102,0.32439956068992615,236.5774383544922,149.39999389648438,-86.9110231,40.4279761,-84.77777778,9.91649011,-0.275865734,0.004210671,-0.021136501,0.014813046174539813,2.891146385752894E-4,Classroom
150,-0.89305691,0.012292143727581088,-0.006527991,0.4497283364717777,-6.04E-04,0.027830382,2.2085811656254988,-3.05E-04,4.4638839496586186E-4,-0.001033742,9.916957642268208,-0.274103061,0.005247367,-60.43550503,-11.46616974,-17.60240358,-103.6952401,46.73453926086426,-50.24179508,-8.07E-04,0.001956275,-2.64E-04,45,1.5,1,11.406000137329102,0.32439956068992615,236.5774383544922,149.39999389648438,-86.9110231,40.4279761,-118.375,9.916957642268208,-0.274103061,0.005247367,-0.021685077,0.015870281817534797,-8.81E-04,Classroom
151,-0.893185055,0.012776088,-0.006552862,0.4494596028212205,-2.21E-04,0.028717147638496844,2.209171315998707,-0.001559736,2.0756944335852432E-4,-6.94E-04,9.948711904507238,-0.284133169,-4.41E-04,-60.34815289,-11.39284777,-17.54420967,-103.6081324,46.807495193481444,-50.18299114,0.018282057012169107,0.00114754,-0.002581276,45,1.5,1,11.406000137329102,0.32439956068992615,236.5774383544922,149.39999389648438,-86.9110231,40.4279761,-76.77777778,9.948711904507238,-0.284133169,-4.41E-04,-0.02293939,0.015631462885880645,-5.41E-04,Classroom
152,-0.893638223,0.012740562995443645,-0.006423437,0.44855881576399204,-5.07E-05,0.028537506,2.2111857492946885,-0.008415459,5.871250126872537E-4,-4.33E-04,9.972503671368349,-0.282800274,0.004068379,-60.40305294,-11.59365977,-17.58263962,-103.6629101,46.60497524261475,-50.22264091,0.011370186666840488,0.001584563,0.003621407,45,1.5,1,11.406000137329102,0.32439956068992615,236.5774383544922,149.39999389648438,-86.9110231,40.4279761,-99.875,9.972503671368349,-0.282800274,0.004068379,-0.029795113,0.016011018495898224,-2.80E-04,Classroom
153,-0.894434017,0.012516638,-0.006498751,0.44697729650053003,-4.36E-04,0.028203850991806938,2.2147324224120206,-0.006434653,-3.26E-04,3.2618058872526713E-4,9.97085713,-0.280991138,0.001486802,-60.3921949,-11.76311786,-17.5750757,-103.6522965,46.43563907623291,-50.21471085,7.318663365632585E-4,3.249462947104741E-4,-0.002804801,45,1.5,1,11.406000137329102,0.32439956068992615,236.5774383544922,149.39999389648438,-86.9110231,40.4279761,-86.44444444,9.97085713,-0.280991138,0.001486802,-0.027814307,0.015097712835712918,4.78892417023302E-4,Classroom
154,-0.8944295,0.012331203892103676,-0.006464147,0.4469919213392202,-5.40E-04,0.027841193,2.2147036084851015,5.634028071230187E-4,1.7791658694159637E-5,0.001192042,9.965447728450481,-0.277711226,0.007868705,-60.34681084,-11.9368458,-17.54115974,-103.6065462,46.26325325012207,-50.18055122,-0.002539172,-3.46E-04,0.002624787,45,1.5,1,11.406000137329102,0.32439956068992615,236.5774383544922,149.39999389648438,-86.9110231,40.4279761,-75.625,9.965447728450481,-0.277711226,0.007868705,-0.020816251,0.015441685128342179,0.001344754,Classroom
155,-0.894580725,0.012661820349907413,-0.006299566,0.4466819806585034,4.029979592232142E-5,0.028285795659984198,2.2153850944296827,-7.71E-05,-4.15E-05,3.854861704506052E-4,9.948116571,-0.282605713,-0.002967797,-60.40354084,-11.91256783,-17.52932571,-103.6638858,46.28594501495361,-50.17018116,-0.008381455,-6.86E-04,-0.002470747,45,1.5,1,11.406000137329102,0.32439956068992615,236.5774383544922,149.39999389648438,-86.9110231,40.4279761,-98.55555556,9.948116571,-0.282605713,-0.002967797,-0.021456751,0.015382379560179791,5.381979744483545E-4,Classroom
156,-0.894304624,0.011805407051901215,-0.006317163,0.4472581301499339,-7.39E-04,0.026769244,2.214118029307393,2.194305710060504E-4,1.7791669996618068E-5,2.9059725325301434E-4,9.929865531551028,-0.267882884,0.006850326,-60.41976685,-11.97320183,-17.47796371,-103.679258,46.22616516113281,-50.11772118,-0.011056243,-0.002055328,3.5678786542085765E-4,45,1.5,1,11.406000137329102,0.32439956068992615,236.5774383544922,149.39999389648438,-86.9110231,40.4279761,-114.125,9.929865531551028,-0.267882884,0.006850326,-0.021160223,0.015441685065048413,4.433090459483052E-4,Classroom
157,-0.894723149,0.012019397510052885,-0.006366939,0.4464139651904986,-6.62E-04,0.027195989036733665,2.2160017328354917,-4.15E-05,-2.08E-04,-1.84E-04,9.906599434,-0.270432517,0.006664476,-60.46258877,-11.9822298,-17.53969561,-103.7224461,46.218601303100584,-50.17945286,-0.012015435,-7.49E-05,-6.77E-04,45,1.5,1,11.406000137329102,0.32439956068992615,236.5774383544922,149.39999389648438,-86.9110231,40.4279761,-107.1111111,9.906599434,-0.270432517,0.006664476,-0.021421167,0.015216324017247528,-3.11E-05,Classroom
158,-0.894849753,0.011995944863601216,-0.006380437,0.44616059684058995,-7.15E-04,0.027165871,2.216568969985814,-1.72E-04,-5.93E-06,6.523611729295509E-5,9.906155077,-0.272113882,0.006362469,-60.45783073,-12.02834575,-17.52285965,-103.7178101,46.171874923706056,-50.16408115,-0.001509879,-0.002628399,-5.65E-04,45,1.5,1,11.406000137329102,0.32439956068992615,236.5774383544922,149.39999389648438,-86.9110231,40.4279761,-112.6666667,9.906155077,-0.272113882,0.006362469,-0.02155164,0.015417962886610077,2.1794790320677087E-4,Classroom
159,-0.895010368,0.012038112985185133,-0.006321284,0.44583723034996253,-5.82E-04,0.027188147955502454,2.2172894340295057,9.397648122663108E-5,4.6988250239967153E-4,2.2319417285661286E-4,9.911062694,-0.270624174,0.008543306,-60.40329689,-11.97710581,-17.46551958,-103.663154,46.22201717376709,-50.10613132,0.00313028,-0.001359341,0.002790242,45,1.5,1,11.406000137329102,0.32439956068992615,236.5774383544922,149.39999389648438,-86.9110231,40.4279761,-114.5,9.911062694,-0.270624174,0.008543306,-0.021285677,0.015893775978698753,3.7590603572495567E-4,Classroom
160,-0.895615339,0.012651683455242695,-0.006473814,0.4446016801792441,-3.47E-04,0.028422238,2.220037990403407,-3.26E-04,7.294583975256068E-4,-0.001441125,9.914216356370055,-0.280003808,-3.98E-04,-60.38158096,-11.95502378,-17.5377437,-103.6416824,46.24544105529785,-50.17701294,0.001731734,0.00184546,-0.003772194,45,1.5,1,1500,1.1360682249069214,245.66529846191406,149.39999389648438,-86.9112081,40.4279126,-104,9.914216356370055,-0.280003808,-3.98E-04,-0.021705835,0.016153352,-0.001288413,Classroom
161,-0.8955004,0.012819023513533537,-0.00623393,0.4448321837823368,2.396754862561951E-4,0.028508780162455966,2.2195144741280566,-2.55E-04,5.3375000947887456E-5,-1.84E-04,9.933100487422017,-0.279231368,0.001013465,-60.37535881,-11.89768378,-17.58068773,-103.6352157,46.303025283813476,-50.22093319,0.011630021252678436,0.003772567,0.003458224,45,1.5,1,1500,1.1360682249069214,245.66529846191406,149.39999389648438,-86.9112081,40.4279126,-106.875,9.933100487422017,-0.279231368,0.001013465,-0.021634667,0.015477268400520664,-3.11E-05,Classroom
162,-0.895249407,0.012668072517274075,-0.006093351,0.4453434596941309,3.732747014307005E-4,0.028113080713066084,2.218373409752707,1.779167903858481E-5,-5.93E-06,-2.79E-04,9.969573586,-0.277805549,-0.008351648,-60.42415871,-11.92659781,-17.51090353,-103.6847485,46.272525215148924,-50.1502951,0.016477760759372156,0.002146948,-0.004571368,45,1.5,1,1500,1.1360682249069214,245.66529846191406,149.39999389648438,-86.9112081,40.4279126,-115.7777778,9.969573586,-0.277805549,-0.008351648,-0.021361862,0.015417962931819911,-1.26E-04,Classroom
163,-0.89521306,0.012591239987212477,-0.006009949,0.44541988181836395,4.565772224735871E-4,0.027901173994234463,2.2182030562058235,-4.15E-05,3.143194520357743E-4,-3.02E-04,9.969888228636522,-0.276974973,-3.91E-04,-60.40439503,-11.93879781,-17.52444574,-103.6641301,46.26191128,-50.16530113,0.002367714,0.001056766,0.004074172,45,1.5,1,1500,1.1360682249069214,245.66529846191406,149.39999389648438,-86.9112081,40.4279126,-115.75,9.969888228636522,-0.276974973,-3.91E-04,-0.021421168,0.015738212865171502,-1.50E-04,Classroom
164,-0.895926866,0.013254536722687263,-0.006250931,0.44395939354757663,5.682209341049882E-4,0.029304702504022607,2.2214525370921905,8.362083813374482E-4,3.1431946785921613E-4,6.582917311020847E-4,9.964517908188903,-0.293382126,-0.006104021,-60.39304867,-11.90927381,-17.56860966,-103.6530278,46.29058120727539,-50.20934326,3.4149873603894873E-4,-0.001681654,-5.55E-04,45,1.5,1,1500,1.1360682249069214,245.66529846191406,149.39999389648438,-86.9112081,40.4279126,-95.55555556,9.964517908188903,-0.293382126,-0.006104021,-0.020543445,0.015738212851608552,8.110035254927443E-4,Classroom
165,-0.883372075,0.011595637049272802,-0.004853084,0.46830479959839755,0.002271843,0.025047152511124472,2.1666399020593143,0.076142407,-1.78E-05,0.001559736,9.959920975768451,-0.243916907,-0.017949074,-60.45917286,-10.48284973,-17.45929775,-103.7191517,47.71761489868164,-50.09966499,-0.005607512,0.006585678,0.005214642,45,1.5,1,1500,1.1360682249069214,245.66529846191406,149.39999389648438,-86.9112081,40.4279126,-112.75,9.959920975768451,-0.243916907,-0.017949074,0.054762753,0.015406101788348944,0.001712448,Classroom
166,-0.878024333,0.011281268906246112,-0.005019652,0.4784565625838863,0.001980993,0.024616259918774214,2.1436927526899914,-6.52E-05,5.27819478432241E-4,1.7198611918873E-4,9.958622978728952,-0.244088236,-0.022699872,-60.41866898,-9.687775879,-17.47845169,-103.6790138,48.51220131,-50.11820911,-6.64E-04,3.049521191606244E-4,-0.002131035,45,1.5,1,1500,1.1360682249069214,245.66529846191406,149.39999389648438,-86.9112081,40.4279126,-122.4444444,9.958622978728952,-0.244088236,-0.022699872,-0.02144489,0.015951712841837152,3.246979486170107E-4,Classroom
167,-0.877913981,0.011426420457371808,-0.004870428,0.47865717387893825,0.002387738,0.024727863630334152,2.1432296419606627,-2.91E-04,2.431527901332355E-4,-5.87E-04,9.954505244505059,-0.246425885,-0.021027219,-60.49430893,-9.703513813,-17.41549971,-103.7546542,48.49841518,-50.05464725,-0.003195661,4.581169595996153E-4,0.002586793,45,1.5,1,1500,1.1360682249069214,245.66529846191406,149.39999389648438,-86.9112081,40.4279126,-124,9.954505244505059,-0.246425885,-0.021027219,-0.021670251,0.015667046194226996,-4.34E-04,Classroom
168,-0.878078332,0.011478000042888407,-0.004911948,0.47835380841906255,0.0023556,0.024858914,2.1439199929053965,-7.05E-04,5.168707642811709E-4,9.397649242041203E-5,9.956633827,-0.245403708,-0.025060752,-60.46210094,-9.676673861,-17.4030558,-103.7211042,48.523303184509274,-50.0429351,0.001719392,0.001856199,-0.001970792,45,1.5,1,1500,1.1360682249069214,245.66529846191406,149.39999389648438,-86.9112081,40.4279126,-120.3333333,9.956633827,-0.245403708,-0.025060752,-0.022084478,0.015940764139836226,2.4668833513994917E-4,Classroom
169,-0.877872516,0.011430877631584417,-0.004894011,0.4787327517004846,0.002352702,0.024757977484644037,2.1430576380016735,2.9652765997260518E-5,1.8384723553379763E-4,-1.36E-04,9.953590485656147,-0.246269074,-0.017606412,-60.44685081,-9.676673832,-17.49040771,-103.7070736,48.52281502,-50.13150707,-0.001667282,2.3511840591152895E-4,0.005860883,45,1.5,1,1500,1.1360682249069214,245.66529846191406,149.39999389648438,-86.9112081,40.4279126,-124.2222222,9.953590485656147,-0.246269074,-0.017606412,-0.021350001,0.015607740603459692,1.6309041755943042E-5,Classroom
170,-0.877951684,0.011389807436289718,-0.004947068,0.478587995,0.002216108,0.024737037049190513,2.1433893685201997,-6.52E-05,4.80375031135904E-4,1.601250141461208E-4,9.955085986,-0.245331111,-0.020066025,-60.4325769,-9.676063814,-17.38975767,-103.692922,48.523668937683105,-50.02988091,1.709947308290352E-4,9.475269363921823E-4,0.002036317,45,1.5,1,1500,1.1360682249069214,245.66529846191406,149.39999389648438,-86.9112081,40.4279126,-131,9.955085986,-0.245331111,-0.020066025,-0.02144489,0.015904268457834582,3.1283685544198286E-4,Classroom
171,-0.877887136,0.011292239,-0.004948608,0.4787087073025194,0.002123347,0.024566903,2.1431168838612082,-1.78E-05,-5.34E-05,-1.36E-04,9.934688919956244,-0.245127837,-0.022845068,-60.49211281,-9.709735794,-17.37145771,-103.7518481,48.489387130737306,-50.01182526,-0.013074125,-7.13E-04,-0.001668167,45,1.5,1,12.89799976348877,0.7109830379486084,62.749603271484375,149.39999389648438,-86.9110043,40.4279887,-129.7777778,9.934688919956244,-0.245127837,-0.022845068,-0.021397446,0.015370518448355706,1.630904345131181E-5,Classroom
172,-0.878054937,0.011475716120771412,-0.00497791,0.4783962256121404,0.002238751,0.024918021,2.1438244754828295,8.89583409411236E-5,3.26180575162317E-4,-2.43E-04,9.904065544788654,-0.249446009,-0.019556724,-60.45783077,-9.745725803,-17.42135569,-103.7178104,48.45315307617187,-50.06135712,-0.013721123,-0.002012682,0.001968756,45,1.5,1,12.89799976348877,0.7109830379486084,62.749603271484375,149.39999389648438,-86.9110043,40.4279887,-134.125,9.904065544788654,-0.249446009,-0.019556724,-0.021290695,0.015750073999600503,-9.04E-05,Classroom
173,-0.878390707,0.011767342659527237,-0.005113199,0.4777708487603271,0.002262078,0.025561247165631323,2.145243214172067,-1.78E-05,4.1513893644786575E-5,2.9059723742957255E-4,9.900219464,-0.25331977,-0.022182976,-60.49296711,-9.695217819,-17.47235168,-103.752946,48.505247077941895,-50.11369499,-0.002804488,-8.64E-04,0.001704383,45,1.5,1,12.89799976348877,0.7109830379486084,62.749603271484375,149.39999389648438,-86.9110043,40.4279887,-124.3333333,9.900219464,-0.25331977,-0.022182976,-0.021397446,0.015465407342948382,4.4330905781588654E-4,Classroom
174,-0.878415123,0.011736885328026652,-0.005082868,0.4777268029532386,0.002284899,0.025478750159873546,2.145343750425913,-5.34E-05,4.447917001846346E-4,-1.96E-04,9.904514368297985,-0.251301549,-0.024058903,-60.4550248,-9.6693538,-17.3806077,-103.7156139,48.530623283386234,-50.02024326,9.5427614971272E-4,6.735359580771437E-4,-0.001301833,45,1.5,1,12.89799976348877,0.7109830379486084,62.749603271484375,149.39999389648438,-86.9110043,40.4279887,-120.875,9.904514368297985,-0.251301549,-0.024058903,-0.021433029,0.015868685,-4.30E-05,Classroom
175,-0.878440084,0.011827496938335085,-0.005109992,0.47767857411532727,0.002322524,0.025664095106778792,2.145451635990328,-1.60E-04,6.523612859541352E-5,-3.85E-04,9.910017328354918,-0.25381053,-0.023896283,-60.49870083,-9.705099812,-17.38463366,-103.7581918,48.495487174987794,-50.0246349,0.0028923,0.001487736,-0.001130268,45,1.5,1,12.89799976348877,0.7109830379486084,62.749603271484375,149.39999389648438,-86.9110043,40.4279887,-120.7777778,9.910017328354918,-0.25381053,-0.023896283,-0.021539779,0.015489129548512616,-2.33E-04,Classroom
176,-0.878272852,0.011628996300538189,-0.005078496,0.47799110065386136,0.002197114,0.025284358,2.1447447110148308,4.1513877821344775E-5,1.7791642870717834E-5,7.709722685654765E-5,9.935005419,-0.249954137,-0.016900761,-60.43330898,-9.666669817,-17.40159166,-103.6931664,48.53306327819824,-50.04147095,0.016775029376872534,-1.13E-04,0.004254935,45,1.5,1,12.89799976348877,0.7109830379486084,62.749603271484375,149.39999389648438,-86.9110043,40.4279887,-115,9.935005419,-0.249954137,-0.016900761,-0.02133814,0.015441685,2.2980906306630344E-4,Classroom
177,-0.878101033,0.011535603,-0.005016105,0.478309612,0.00222645,0.025059903219628792,2.144020724755067,-4.70E-04,1.1747062448053979E-4,-3.05E-04,9.965615615104008,-0.249202025,-0.024061806,-60.49589504,-9.675209761,-17.38975758,-103.7557523,48.524645233154295,-50.02988106,0.013765518481914815,0.001042558,-0.001587058,45,1.5,1,12.89799976348877,0.7109830379486084,62.749603271484375,149.39999389648438,-86.9110043,40.4279887,-118.3333333,9.965615615104008,-0.249202025,-0.024061806,-0.021849536,0.015541364,-1.53E-04,Classroom
178,-0.87801458,0.011573579551163808,-0.004962092,0.4784681215448287,0.002362305,0.025074547066271883,2.1436578648761637,-1.96E-04,3.1431945881724935E-4,-3.38E-04,9.967006544,-0.246391039,-0.022467559,-60.47405693,-9.629703894,-17.42501568,-103.733914,48.57100517272949,-50.06416309,0.002444156,0.003505083,0.001143433,45,1.5,1,12.89799976348877,0.7109830379486084,62.749603271484375,149.39999389648438,-86.9110043,40.4279887,-114.375,9.967006544,-0.246391039,-0.022467559,-0.021575362,0.015738212928465268,-1.85E-04,Classroom
179,-0.877743649,0.011350783347649482,-0.004896484,0.4789708303016366,0.002278239,0.024619162625190125,2.1425172403020767,5.930555912042127E-6,2.431527946542189E-4,8.717917213306843E-4,9.967596026300226,-0.248165327,-0.02102722,-60.46783489,-9.65337184,-17.4373377,-103.7281799,48.54648315429687,-50.07746094,0.001188084,-0.002779793,0.001751165,45,1.5,1,12.89799976348877,0.7109830379486084,62.749603271484375,149.39999389648438,-86.9110043,40.4279887,-113,9.967596026300226,-0.248165327,-0.02102722,-0.021373723,0.015667046,0.001024504,Classroom
180,-0.877554187,0.011110263930868756,-0.004905474,0.4793235043298851,0.002041721,0.024204649736435668,2.141719829688952,-8.90E-05,5.930542349092011E-6,-5.04E-04,9.955637746644252,-0.237888386,-0.020585825,-60.43709087,-9.652029867,-17.40378763,-103.6975582,48.54709327697754,-50.043423,-0.006449088,0.003232457,-1.73E-04,45,1.5,1,12.89799976348877,0.7109830379486084,62.749603271484375,149.39999389648438,-86.9110043,40.4279887,-104.25,9.955637746644252,-0.237888386,-0.020585825,-0.021468612,0.015429824,-3.51E-04,Classroom
181,-0.877650877,0.011263446990870734,-0.005008392,0.4791416635791075,0.002002891,0.024572526475468887,2.1421318424558176,8.89583545040737E-5,7.709722459605597E-5,5.040972706075143E-4,9.933630687,-0.245825138,-0.017848386,-60.46222301,-9.637389841,-17.4541737,-103.722202,48.56368534088135,-50.09393108,-0.013771918,-0.001485161,0.001271819,45,1.5,1,12.89799976348877,0.7109830379486084,62.749603271484375,149.39999389648438,-86.9110043,40.4279887,-112.1111111,9.933630687,-0.245825138,-0.017848386,-0.021290696,0.015500990660336701,6.568090740401406E-4,Classroom
182,-0.877736438,0.011382506644913873,-0.005068665,0.4789816687986689,0.002006722,0.024839814,2.142494400728096,-2.97E-05,2.0756945918196614E-4,-3.02E-04,9.907241173160886,-0.248824514,-0.020841369,-60.47527683,-9.684115801,-17.44575565,-103.7352557,48.515129013061525,-50.08453709,-0.013464261,-0.002025596,9.110674840732685E-5,45,1.5,1,12.89799976348877,0.7109830379486084,62.749603271484375,149.39999389648438,-86.9110043,40.4279887,-124.4444444,9.907241173160886,-0.248824514,-0.020841369,-0.021409307,0.015631463,-1.50E-04,Classroom
183,-0.877763053,0.011619318041552617,-0.005031941,0.4789273455305007,0.002296585,0.025220394640871623,2.142611242,5.3375039376246116E-5,2.965275469480209E-5,3.261806022882172E-4,9.906715513433067,-0.250430379,-0.024198291,-60.45441498,-9.692167826,-17.40781374,-103.7145161,48.50866310119629,-50.04805885,-0.00112016,-8.74E-04,-0.002475743,45,1.5,1,12.89799976348877,0.7109830379486084,62.749603271484375,149.39999389648438,-86.9110043,40.4279887,-105.875,9.906715513433067,-0.250430379,-0.024198291,-0.021326279,0.015453546199477414,4.7889238368104963E-4,Classroom
184,-0.877547244,0.011484819392049775,-0.004933272,0.4793271541016773,0.002352319,0.024888774253500317,2.141702205232046,-1.48E-04,4.1513886863311515E-5,-1.72E-04,9.906901378076054,-0.244608037,-0.022630178,-60.48955109,-9.689971828,-17.34473967,-103.7495299,48.51012714385986,-49.98535099,-5.35E-04,0.002293409,0.001071872,45,1.5,1,12.89799976348877,0.7109830379486084,62.749603271484375,149.39999389648438,-86.9110043,40.4279887,-123,9.906901378076054,-0.244608037,-0.022630178,-0.021527918,0.015465407333906415,-1.93E-05,Classroom
185,-0.878038221,0.012009658326295395,-0.005309,0.47840832709108744,0.002167124,0.026172232461496463,2.143787032192193,-5.87E-04,-2.43E-04,-0.003552403,9.914663537034711,-0.261967615,-0.019798865,-60.46185669,-9.648979864,-17.37548368,-103.7219579,48.54941120147705,-50.01633911,0.004087865,-0.002463211,0.003242269,45,1.5,1,1500,1.5696452856063843,251.11402893066406,149.39999389648438,-86.9112684,40.4279198,-116,9.914663537034711,-0.261967615,-0.019798865,-0.021966779,0.015180740614525649,-0.003399691,Classroom
186,-0.878680664,0.012862394886234632,-0.00591836,0.47719977222956145,0.001875811,0.028256078,2.1465261532710147,-1.06E-04,3.171706943808553E-4,-9.40E-05,9.932577753529966,-0.278432792,-0.019168717,-60.43611481,-9.551989841,-17.41366959,-103.6962159,48.64774326324463,-50.05354889,0.013432640295762282,0.002021073,-0.001360237,45,1.5,1,1500,1.5696452856063843,251.11402893066406,149.39999389648438,-86.9112684,40.4279198,-124.5555556,9.932577753529966,-0.278432792,-0.019168717,-0.021485377,0.015741064,5.873539003704746E-5,Classroom
187,-0.87831346,0.012542937782782954,-0.005750264,0.47788576420071055,0.001887646,0.027532673413747724,2.144970377672066,-8.01E-04,5.930551391058755E-6,-1.36E-04,9.966989146852956,-0.269555537,-0.020214124,-60.42476871,-9.529297829,-17.42391773,-103.6845042,48.670191078186036,-50.06257702,0.015842224787739875,0.004493922,-0.001357025,45,1.5,1,1500,1.5696452856063843,251.11402893066406,149.39999389648438,-86.9112684,40.4279198,-121.625,9.966989146852956,-0.269555537,-0.020214124,-0.022180279,0.015429824,1.630907001208912E-5,Classroom
188,-0.87832896,0.012046149154238909,-0.005350004,0.47787389217071163,0.002115101,0.026277039019228184,2.14500446,-1.96E-04,0.001037847,0.002674681,9.968748879664153,-0.259670623,-0.018027479,-60.40585884,-9.624579849,-17.46198164,-103.6659597,48.574909133911135,-50.10283722,9.293232149290807E-4,0.002307189,0.003127142,45,1.5,1,1500,1.5696452856063843,251.11402893066406,149.39999389648438,-86.9112684,40.4279198,-108.7777778,9.968748879664153,-0.259670623,-0.018027479,-0.021575362,0.016461741,0.002827393,Classroom
189,-0.877827481,0.011372587987158483,-0.004774688,0.4788179739007672,0.002508818,0.024541147,2.14286319,-6.52E-05,3.2618057064133364E-4,1.1268052842142512E-4,9.952092050348671,-0.245874141,-0.023800454,-60.45307323,-9.698267794,-17.43074974,-103.7129301,48.501953239440915,-50.07014118,-0.007715725,-0.001417979,0.001243528,45,1.5,1,1500,1.5696452856063843,251.11402893066406,149.39999389648438,-86.9112684,40.4279198,-117.875,9.952092050348671,-0.245874141,-0.023800454,-0.02144489,0.015750074099062136,2.6539236293581214E-4,Classroom
190,-0.877807581,0.011405184928291632,-0.004786778,0.4788536759256159,0.00251985,0.024609927,2.1427812043902943,-1.01E-04,3.1431946785921613E-4,-1.36E-04,9.954656332441903,-0.242909248,-0.023001879,-60.44465504,-9.672891855,-17.47491367,-103.7045121,48.526475257873535,-50.11406113,2.3815006885713743E-4,0.002039765,0.00215326,45,1.5,1,1500,1.5696452856063843,251.11402893066406,149.39999389648438,-86.9112684,40.4279198,-117,9.954656332441903,-0.242909248,-0.023001879,-0.021480473,0.015738213,1.6309012369551126E-5,Classroom
191,-0.878077401,0.011608156,-0.005043858,0.4783499281383255,0.002247429,0.025213616113494902,2.1439270163045347,-4.33E-04,-5.52E-04,-0.003267736,9.952572006445665,-0.251436192,-0.023370285,-60.47771694,-9.690093832,-17.50760975,-103.7383059,48.51012710571289,-50.1479771,-6.53E-04,-4.67E-04,-2.67E-05,45,1.5,1,1500,1.5696452856063843,251.11402893066406,149.39999389648438,-86.9112684,40.4279198,-112.125,9.952572006445665,-0.251436192,-0.023370285,-0.021812584,0.014872351760786134,-0.003115024,Classroom
192,-0.878705734,0.012516236755526761,-0.0057256,0.4771647352038078,0.001882814,0.027463502675584218,2.1466123826295425,2.3129167604865958E-4,0.001215764,9.548194950573074E-4,9.954856632,-0.271681198,-0.015428479,-60.43806675,-9.551867905,-17.48308764,-103.6981681,48.64908500671387,-50.12272312,0.00176927,0.001751336,0.002202422,45,1.5,1,1500,1.5696452856063843,251.11402893066406,149.39999389648438,-86.9112684,40.4279198,-104.6666667,9.954856632,-0.271681198,-0.015428479,-0.021148362,0.016639657427095673,0.001107531,Classroom
193,-0.877871861,0.012282146728660875,-0.005184394,0.47870997722866465,0.002657632,0.026531048,2.1430908592001905,-1.72E-04,3.26180575162317E-4,-1.84E-04,9.959279347391961,-0.264052624,-0.025301776,-60.54188889,-9.605303822,-17.33729773,-103.801868,48.59552707672119,-49.97888504,0.001925357,5.646376933866334E-4,0.001556641,45,1.5,1,1500,1.5696452856063843,251.11402893066406,149.39999389648438,-86.9112684,40.4279198,-115.3333333,9.959279347391961,-0.264052624,-0.025301776,-0.02155164,0.015750073999600503,-3.11E-05,Classroom
194,-0.878732341,0.012313262622767282,-0.005654883,0.47712122988932343,0.001811905,0.027039139233167888,2.146715557690963,-3.97E-04,-8.12E-04,2.431527810912688E-4,9.956959030003224,-0.269840119,-0.018419507,-60.51846485,-9.596519833,-17.45746761,-103.778322,48.60455501556397,-50.09722507,-0.001179686,0.001003984,-0.001331988,45,1.5,1,1500,1.5696452856063843,251.11402893066406,149.39999389648438,-86.9112684,40.4279198,-105.5,9.956959030003224,-0.269840119,-0.018419507,-0.021777001,0.014611407,3.9586465064327694E-4,Classroom
195,-0.878902199,0.011717720942285199,-0.005524098,0.4768259980930732,0.001464798,0.025868390722630117,2.1474021696127377,1.64458872929502E-4,9.397650809170536E-5,5.638590060138645E-4,9.954911797,-0.257550768,-0.01382552,-60.38987686,-9.658251801,-17.42330774,-103.6504662,48.542945098876956,-50.06330917,-1.95E-04,-0.001665957,0.001706723,45,1.5,1,1500,1.5696452856063843,251.11402893066406,149.39999389648438,-86.9112684,40.4279198,-99.88888889,9.954911797,-0.257550768,-0.01382552,-0.021215195,0.015517869910511833,7.165708235473945E-4,Classroom
196,-0.878916734,0.011777328,-0.005564569,0.47679723900498694,0.001449677,0.026011795,2.147466666490129,-1.25E-04,-1.96E-04,-1.36E-04,9.936924952905155,-0.259966822,-0.014609576,-60.46539501,-9.65471385,-17.47942762,-103.7257398,48.54672718048096,-50.12003906,-0.01218693,-0.001101996,-1.16E-04,45,1.5,1,11.234999656677246,0.3732813000679016,74.40486145019531,149.39999389648438,-86.9110097,40.4279831,-114.875,9.936924952905155,-0.259966822,-0.014609576,-0.021504196,0.015228185,1.630900558807607E-5,Classroom
197,-0.879059016,0.011993249824035514,-0.005681255,0.47652804648991925,0.001442372,0.026503141553511897,2.1480754116206495,5.337500320837914E-5,2.965277051824389E-5,2.312916896116097E-4,9.903974199757993,-0.266279924,-0.015431383,-60.41232479,-9.656421785,-17.43062769,-103.671694,48.54379940032959,-50.07087303,-0.015448061,-0.003271067,-0.001068479,45,1.5,1,11.234999656677246,0.3732813000679016,74.40486145019531,149.39999389648438,-86.9110097,40.4279831,-116.8888889,9.903974199757993,-0.266279924,-0.015431383,-0.021326279,0.015453546185914463,3.8400349530472774E-4,Classroom
198,-0.879032167,0.012011309904814924,-0.005711647,0.4765768456227571,0.001407641,0.026563849,2.147964410411501,1.7791672257109754E-5,-1.25E-04,-2.43E-04,9.89707457,-0.262562919,-0.012547799,-60.44319092,-9.655933847,-17.45356369,-103.7026822,48.54440933227539,-50.09283291,-0.005094463,5.465809581349197E-4,0.00146827,45,1.5,1,11.234999656677246,0.3732813000679016,74.40486145019531,149.39999389648438,-86.9110097,40.4279831,-127.5,9.89707457,-0.262562919,-0.012547799,-0.021361862,0.015299351795495134,-9.04E-05,Classroom
199,-0.878907922,0.012066507060984962,-0.005765794,0.47680380708962966,0.001371968,0.026712089668489196,2.147447259680739,-2.97E-05,-1.25E-04,2.9059723516908085E-4,9.905025445141838,-0.265931455,-0.015988934,-60.43977497,-9.642513828,-17.43794764,-103.6999978,48.558439025878904,-50.07794899,0.003244502,-0.001319338,-0.002348899,45,1.5,1,11.234999656677246,0.3732813000679016,74.40486145019531,149.39999389648438,-86.9110097,40.4279831,-108.6666667,9.905025445141838,-0.265931455,-0.015988934,-0.021409307,0.015299351781932185,4.433090459483052E-4,Classroom
200,-0.878859203,0.012039336963620001,-0.005777081,0.4768942843363123,0.001328967,0.026675032,2.147242321551425,5.337500320837914E-5,-3.97E-04,1.1268056232880041E-4,9.907070939357464,-0.264096294,-0.013344588,-60.50785091,-9.66520587,-17.37609362,-103.7673418,48.53586902618408,-50.01768105,0.00101183,3.1334422167065076E-4,-6.07E-04,45,1.5,1,11.234999656677246,0.3732813000679016,74.40486145019531,149.39999389648438,-86.9110097,40.4279831,-127.125,9.907070939357464,-0.264096294,-0.013344588,-0.021326278,0.015026546164768414,2.653923612404434E-4,Classroom
201,-0.878813784,0.012037389143144043,-0.005773751,0.47697800542544394,0.001335475,0.026668281900217233,2.1470517325169833,-3.02E-04,-2.67E-04,-1.01E-04,9.922588311352776,-0.263733194,-0.017472832,-60.46795696,-9.652517815,-17.44331564,-103.7281803,48.54636116027832,-50.08197517,0.008563764,-7.56E-04,-0.003251892,0,1.5,1,12.711999893188477,0.091806158,0,149.39999389648438,-86.9110045,40.4279839,-127.6666667,9.922588311352776,-0.263733194,-0.017472832,-0.021682112,0.015157018363186456,5.1892343320820514E-5,Classroom
202,-0.878775522,0.012046466671943087,-0.005729593,0.4770483308046767,0.001423774,0.026641727,2.146890487485719,-5.04E-04,6.938750349274538E-4,5.989861584187133E-4,9.916249080769067,-0.264929607,-0.01631998,-60.45136497,-9.641781874,-17.47637768,-103.711954,48.55880516052246,-50.11552502,-0.003089673,1.6671332340796016E-4,-0.001625548,0,1.5,1,12.711999893188477,0.091806158,0,149.39999389648438,-86.9110045,40.4279839,-120,9.916249080769067,-0.264929607,-0.01631998,-0.021883751,0.016117768493273014,7.516979759794127E-4,Classroom
203,-0.878203166,0.011834416665064478,-0.00514615,0.47811135389272447,0.002277507,0.02570888,2.1444655575798555,5.51541683996476E-4,-4.33E-04,0.002733986,9.916249071510093,-0.257617557,-0.029047821,-60.48576881,-9.720227804,-17.46564169,-103.745138,48.48109119415283,-50.10564304,0.00194557,-0.002993278,-0.008665573,0,1.5,1,12.711999893188477,0.091806158,0,149.39999389648438,-86.9110045,40.4279839,-120.3333333,9.916249071510093,-0.257617557,-0.029047821,-0.020828112,0.014990962834382266,0.002886698,Classroom
204,-0.879087596,0.011263366000583539,-0.005606498,0.4764908661062901,8.748263588551289E-4,0.025148021415449105,2.148176344541403,-0.002255436,-0.001186453,-0.002408148,9.914082758634994,-0.248844842,-0.005151538,-60.4511208,-9.740235844,-17.44538965,-103.7113445,48.45900917053223,-50.08526886,-0.0023837,0.00148151,0.004821242,0,1.5,1,12.711999893188477,0.091806158,0,149.39999389648438,-86.9110045,40.4279839,-114.875,9.914082758634994,-0.248844842,-0.005151538,-0.02363509,0.014237440097741246,-0.002255436,Classroom
205,-0.879878447,0.011737908815368287,-0.006066249,0.47501496608974864,4.76356202709424E-4,0.026422039271124357,2.1515299463735045,-0.001180181,-6.11E-04,2.4315279239372722E-4,9.917152201,-0.263317937,-0.003388864,-60.460149,-9.757925816,-17.39866367,-103.7196404,48.44156311035156,-50.03781113,3.245640726922785E-4,-0.001193182,0.00141128,0,1.5,1,12.711999893188477,0.091806158,0,149.39999389648438,-86.9110045,40.4279839,-97.33333333,9.917152201,-0.263317937,-0.003388864,-0.022559834,0.014813046111246047,3.9586462182200795E-4,Classroom
206,-0.879608129,0.011565952607005546,-0.005980938,0.4755207178662124,4.7808490124168104E-4,0.026038054720435327,2.1503830233823904,-1.13E-04,-6.52E-05,-4.15E-05,9.931967994541798,-0.256778327,-0.008552018,-60.39195087,-9.793671761,-17.48284369,-103.652052,48.40545097351074,-50.12333317,0.010154835228781097,0.001657,-0.003729095,0,1.5,1,12.711999893188477,0.091806158,0,149.39999389648438,-86.9110045,40.4279839,-117.875,9.931967994541798,-0.256778327,-0.008552018,-0.021492334,0.015358657341052606,1.111978973551355E-4,Classroom
207,-0.879444139,0.011354185469014552,-0.005992734,0.47582888661079037,2.648085286884311E-4,0.025676591,2.1496876327736865,1.1268056232880041E-4,-3.38E-04,-5.93E-06,9.960106933001176,-0.255079539,-0.002697733,-60.32228905,-9.806847763,-17.5467717,-103.5822685,48.39325130462647,-50.18665119,0.011298142590569061,4.31526054456396E-4,1.854751399239001E-5,0,1.5,1,12.711999893188477,0.091806158,0,149.39999389648438,-86.9110045,40.4279839,-119.3333333,9.960106933001176,-0.255079539,-0.002697733,-0.021266973,0.015085851746493751,1.4678124808570713E-4,Classroom
208,-0.879309204,0.011254630612155187,-0.005952892,0.47608095204945905,2.4734631751396115E-4,0.025463471623155678,2.149116020758175,7.709722685654765E-5,-1.01E-04,1.482639113640033E-4,9.961349746555959,-0.253601448,-0.004718855,-60.43940865,-9.752923822,-17.39231966,-103.6998761,48.44680904388428,-50.03110104,0.004358662,-1.65E-05,-0.002174662,0,1.5,1,12.711999893188477,0.091806158,0,149.39999389648438,-86.9110045,40.4279839,-128.6666667,9.961349746555959,-0.253601448,-0.004718855,-0.021302556,0.015323074,3.00975719317613E-4,Classroom
209,-0.879246968,0.011345388349688169,-0.00590742,0.47619422344328133,4.1707799236179394E-4,0.025579712218017255,2.1488553505499386,4.151389816576995E-5,-2.08E-04,2.9059720126170557E-4,9.965962547522325,-0.254789596,-0.002953641,-60.35315475,-9.720227795,-17.43562965,-103.6126463,48.478529167175296,-50.07477699,0.002314225,-6.63E-04,0.001331583,0,1.5,1,12.711999893188477,0.091806158,0,149.39999389648438,-86.9110045,40.4279839,-112.5,9.965962547522325,-0.254789596,-0.002953641,-0.02133814,0.015216323967516711,4.4330904029707597E-4,Classroom
210,-0.878921273,0.011483113462268149,-0.005729051,0.47679400704439406,8.79609854343727E-4,0.025651489429682203,2.147484189098321,1.601249960621873E-4,8.599306140275835E-4,-8.60E-04,9.966001816166257,-0.257028064,-0.0129195,-60.4431908,-9.724375839,-17.48577177,-103.7028043,48.475235290527344,-50.12540714,-6.64E-04,-2.88E-04,-0.004262704,0,1.5,1,12.711999893188477,0.091806158,0,149.39999389648438,-86.9110045,40.4279839,-123.5555556,9.966001816166257,-0.257028064,-0.0129195,-0.021219529,0.016283824,-7.07E-04,Classroom
211,-0.878841004,0.011129380502168414,-0.005742523,0.4769476831538006,5.20978738227181E-4,0.025043322460599315,2.1471414172533647,0.002105347,-0.002745847,0.004453848,9.961033247049572,-0.248060786,-0.003769276,-60.43050293,-9.792329769,-17.39976175,-103.6902382,48.40740314483642,-50.03988506,-0.002907059,0.00108709,0.001251043,0,1.5,1,12.711999893188477,0.091806158,0,149.39999389648438,-86.9110045,40.4279839,-113.25,9.961033247049572,-0.248060786,-0.003769276,-0.019274307,0.012678046068809564,0.004606559,Classroom
212,-0.877709482,0.009094944,-0.005826423,0.47907107894860423,-0.001514085,0.021549591541434956,2.142352858793388,7.175972653570973E-4,-2.43E-04,7.294583930046234E-4,9.960083619,-0.216512697,0.011310733272976613,-60.33351303,-9.789157734,-17.58910568,-103.593614,48.41033100128174,-50.22910683,-4.19E-04,-0.001969596,-0.003890031,0,1.5,1,12.711999893188477,0.091806158,0,149.39999389648438,-86.9110045,40.4279839,-102.5555556,9.960083619,-0.216512697,0.011310733272976613,-0.020662057,0.015180740650128392,8.821701936116351E-4,Classroom
213,-0.877659298,0.009004741,-0.005790338,0.47916527952139193,-0.001534801,0.021356835,2.1421394508618574,8.222943198723861E-5,-4.11E-04,-3.36E-11,9.953091038083567,-0.213059949,0.015228109056462344,-60.3205809,-9.829051781,-17.57727167,-103.5803165,48.370924949645996,-50.21654125,-0.004027367,-5.90E-04,4.096813410377273E-4,0,1.5,1,12.711999893188477,0.091806158,0,149.39999389648438,-86.9110045,40.4279839,-86.5,9.953091038083567,-0.213059949,0.015228109056462344,-0.021297424,0.015012746202186324,1.5271183712264666E-4,Classroom
214,-0.877629465,0.00887216,-0.00582717,0.47922200514274893,-0.001725186,0.021159533,2.1420131262066295,1.3640278597696893E-4,-8.90E-05,4.685139373957532E-4,9.954389136971779,-0.212990255,0.015864065608113678,-60.3241188,-9.857355795,-17.58471365,-103.5844643,48.34347541809082,-50.22410538,2.7138052634822514E-4,-0.002393292,-0.00121628,0,1.5,1,12.711999893188477,0.091806158,0,149.39999389648438,-86.9110045,40.4279839,-106,9.954389136971779,-0.212990255,0.015864065608113678,-0.021243251,0.015334935,6.212257758660007E-4,Classroom
215,-0.877651989,0.008862597,-0.005786538,0.47918131050554297,-0.001664046,0.021103684727138687,2.142105463639046,1.0081945276520785E-4,-2.43E-04,5.337500320837914E-5,9.949739900607508,-0.211616705,0.015021931393596442,-60.36035286,-9.801235809,-17.48967566,-103.6197221,48.398252983093265,-50.12979889,-0.001111142,-0.001646375,-0.001462273,0,1.5,1,12.711999893188477,0.091806158,0,149.39999389648438,-86.9110045,40.4279839,-108.1111111,9.949739900607508,-0.211616705,0.015021931393596442,-0.021278835,0.015180740609439542,2.0608685354620796E-4,Classroom
216,-0.877619135,0.008848047,-0.00577672,0.47924191685556206,-0.001659292,0.021068868,2.1419675026125122,3.380416802049262E-4,-5.34E-05,4.092083918382821E-4,9.93907384,-0.210129902,0.014841888788511108,-60.35876675,-9.797331791,-17.5348156,-103.6192339,48.40325511932373,-50.17554909,-0.009029657,-5.63E-04,-0.001573016,0,1.5,1,12.699999809265137,0.028734974563121796,0,149.39999389648438,-86.9110096,40.4279853,-97.375,9.93907384,-0.210129902,0.014841888788511108,-0.021041612,0.015370518,5.619202286131608E-4,Classroom
217,-0.877884426,0.009044735,-0.005910876,0.4787504982601092,-0.001718267,0.021541768920074388,2.143085488995302,2.787361233449966E-4,-3.97E-04,2.1943054614064183E-4,9.906053524572872,-0.216457524,0.015245532704284415,-60.30960091,-9.858575735,-17.5055356,-103.5693362,48.342499313354494,-50.14651295,-0.015077767,-0.002782621,-0.001718714,0,1.5,1,12.699999809265137,0.028734974563121796,0,149.39999389648438,-86.9110096,40.4279853,-102.7777778,9.906053524572872,-0.216457524,0.015245532704284415,-0.021100918,0.015026546,3.721423738735538E-4,Classroom
218,-0.878074891,0.009082339,-0.006070211,0.47839836935395175,-0.001970802,0.021759605414948417,2.143889151730584,1.779167903858481E-5,-2.43E-04,-2.79E-04,9.901494356302114,-0.217401743,0.020825035,-60.35535072,-9.876631832,-17.58093172,-103.6153304,48.322857246398925,-50.22044502,-0.003974803,-8.97E-04,0.001455748,0,1.5,1,12.699999809265137,0.028734974563121796,0,149.39999389648438,-86.9110096,40.4279853,-109.75,9.901494356302114,-0.217401743,0.020825035,-0.021361862,0.015180740659170359,-1.26E-04,Classroom
219,-0.878340622,0.009221041,-0.006090123,0.4779074446668903,-0.001885289,0.022021215119697516,2.1450049992903923,2.7873613012647163E-4,-3.38E-04,2.3129168283013464E-4,9.906204492143058,-0.220000296,0.013683228551475694,-60.40341892,-9.85003583,-17.51566175,-103.6633987,48.34945301055908,-50.15505302,0.00158472,-0.001861343,-0.004807806,0,1.5,1,12.699999809265137,0.028734974563121796,0,149.39999389648438,-86.9110096,40.4279853,-104.3333333,9.906204492143058,-0.220000296,0.013683228551475694,-0.021100918,0.015085851737451784,3.840035326028405E-4,Classroom
220,-0.878365381,0.009249999,-0.006005708,0.4778625082622454,-0.001710399,0.021991328291088633,2.1451056512814124,1.0081945050471616E-4,-3.14E-04,2.905972396900642E-4,9.909021257196816,-0.217697494,0.014656038612672083,-60.39292675,-9.834419794,-17.53103371,-103.6529062,48.36653312683106,-50.17152306,0.002394398,-0.001080259,-0.002616895,0,1.5,1,12.699999809265137,0.028734974563121796,0,149.39999389648438,-86.9110096,40.4279853,-117.5,9.909021257196816,-0.217697494,0.014656038612672083,-0.021278834,0.015109574,4.4330906516248453E-4,Classroom
221,-0.878337626,0.009318286,-0.005987577,0.47791227090705946,-0.001612092,0.022094049246855152,2.144990708064107,-4.15E-05,-5.34E-05,-5.34E-05,9.922524479986395,-0.223197501,0.014005562633578892,-60.38341095,-9.806603813,-17.59313171,-103.643634,48.39239715576172,-50.2337431,0.009254243,-0.003297645,-0.001488114,0,1.5,1,12.699999809265137,0.028734974563121796,0,149.39999389648438,-86.9110096,40.4279853,-125.6666667,9.922524479986395,-0.223197501,0.014005562633578892,-0.021421168,0.015370518430271774,9.933681548256608E-5,Classroom
222,-0.878096998,0.009161501,-0.00586389,0.47835872035760146,-0.001533668,0.021701116473055802,2.1439751501266775,7.048238946411472E-5,-2.35E-04,-3.76E-04,9.959700315901376,-0.207966489,0.012030903077616529,-60.37182095,-9.821365747,-17.56494965,-103.6318004,48.37958698272705,-50.20397511,0.017870160249563363,0.006904506,-0.003169466,0,1.5,1,12.699999809265137,0.028734974563121796,0,149.39999389648438,-86.9110096,40.4279853,-122,9.959700315901376,-0.207966489,0.012030903077616529,-0.021309172,0.015188952155697804,-2.23E-04,Classroom
223,-0.877854021,0.008957376,-0.005803909,0.478808996,-0.001612799,0.021286047488740346,2.142952319487785,-5.93E-06,-2.79E-04,2.787361459499135E-4,9.968165193946616,-0.212609842,0.017983920824458568,-60.37438267,-9.863821802,-17.53298555,-103.6346064,48.33639904022217,-50.1734753,0.004691207,-5.64E-04,0.002002431,0,1.5,1,12.699999809265137,0.028734974563121796,0,149.39999389648438,-86.9110096,40.4279853,-121.8888889,9.968165193946616,-0.212609842,0.017983920824458568,-0.021385584,0.015145157,4.314479861155297E-4,Classroom
