seconds_elapsed,accelerometer_z,accelerometer_y,accelerometer_x,magnetometer_z,magnetometer_y,magnetometer_x,orientation_qz,orientation_qy,orientation_qx,orientation_qw,orientation_roll,orientation_pitch,orientation_yaw,totalAcceleration_z,totalAcceleration_y,totalAcceleration_x,location_bearingAccuracy,location_speedAccuracy,location_verticalAccuracy,location_horizontalAccuracy,location_speed,location_bearing,location_altitude,location_longitude,location_latitude,microphone_dBFS,gyroscope_z,gyroscope_y,gyroscope_x,gyroscopeUncalibrated_z,gyroscopeUncalibrated_y,gyroscopeUncalibrated_x,magnetometerUncalibrated_z,magnetometerUncalibrated_y,magnetometerUncalibrated_x,accelerometerUncalibrated_z,accelerometerUncalibrated_y,accelerometerUncalibrated_x,class
0,-0.005182549,-0.011128229,0.001577629,33.05671862701872,-42.30887091,-4.771292487,-0.996991044,0.011352800167514943,-0.022042512,0.073443053,-0.04231155,0.025877945,2.9950765259563923,9.929056637529014,-0.268884774,0.42274066935414856,45,1.5,1.717834711074829,20.645000457763672,0,0,160.89999389648438,-86.9151767,40.3840295,-89.875,0.001927987,-7.06E-04,0.001145339,-0.020062514,0.012274212,0.001450762,-30.07431333,-16.51842437,-31.8260457,9.928552862314078,-0.269022288,0.4226921191582313,Drive
1,-0.021647342,-0.014497988,-0.001866992,32.499091167449954,-42.03302505,-5.301265931,-0.996897647,0.011846304663176675,-0.02232676,0.074533043,-0.0427771,0.026950618,2.9929169080789806,9.889695658267122,-0.281969755,0.42236223614331586,45,1.5,1.717834711074829,20.645000457763672,0,0,160.89999389648438,-86.9151767,40.3840295,-63,0.001767306,-4.21E-04,7.190799246795331E-4,-0.020223195,0.012559434977694623,0.001024504,-30.62077948,-16.23344179,-32.36123146,9.889695658267122,-0.281969755,0.42236223614331586,Drive
2,0.010046764484886984,0.23585541502943316,0.002214825,31.46770336151123,-41.20037506,-6.425373907,-0.996664396,0.002999119,-0.021850026,0.078259355,-0.043111723,0.009398936,2.985072478507329,9.908658222087379,0.14283176655180355,0.4292154660430348,45,1.5,1.717834711074829,20.645000457763672,0,0,160.89999389648438,-86.9151767,40.3840295,-41.88888889,0.007448778,-5.99E-04,0.001952636,-0.014541723,0.012381518232518608,0.002258059,-31.65228933,-15.40066978,-33.48497334,9.908658222087379,0.14283176655180355,0.4292154660430348,Drive
3,0.040695033,0.38381415113662054,-0.049576804,31.832361240386962,-41.27223301,-6.636189876,-0.996069424,-0.029249297,-0.019336577,0.080452812,-0.043374,-0.055194851,2.9792049440365393,9.973583872501667,0.9337041303515434,0.3791588540188968,45,1.5,1.7511672973632812,18.969999313354492,0.6019713282585144,165.7829132080078,160.89999389648438,-86.9153108,40.384137,-51.375,0.044206364,-0.002069764,0.006092163,0.022215862,0.010910740305864008,0.006397587,-31.28763136,-15.47203964,-33.69627754,9.973583872501667,0.9337041303515434,0.3791588540188968,Drive
4,-0.001916302,-0.010155253,-0.193601005,32.810801315307614,-40.85169933,-7.596695862,-0.99241385,-0.050229638,-0.007472425,0.11096179948269742,-0.026194932,-0.098337826,2.917635797296913,9.958495158593632,0.9705248012126071,0.066145285,13.235919952392578,0.8683893084526062,1.7613009214401245,15.388999938964844,2.4157183170318604,163.92149353027344,160.89999389648438,-86.9155792,40.3842971,-28.77777778,0.12201525704953277,0.001785097,0.019056358932431572,0.10002475600798154,0.014765601804100194,0.019361782405927813,-30.30882536,-15.05113969,-34.65702732,9.958495158593632,0.9705248012126071,0.066145285,Drive
5,-0.009448885,-0.240170004,-0.219376159,32.37672527313232,-39.44186737,-9.211975813,-0.98395415,-0.042122478,2.771694932553411E-4,0.17199747799669654,-0.013738869,-0.08321352,2.7948927208057883,9.952068866,0.591108503,-0.079633949,5.477977752685547,0.5491812229156494,1.7710700035095215,10.288999557495117,3.3814234733581543,154.78074645996094,160.89999389648438,-86.915645,40.3843075,-35.25,0.18049053804388324,-0.014571376,5.485770943601733E-5,0.1585000374363464,-0.001590871,3.6028130838954914E-4,-30.74326738,-13.64155177,-36.27194134,9.952068866,0.591108503,-0.079633949,Drive
6,0.037982894378958396,-0.19426088,-0.241531627,32.413081378936766,-37.90527729,-11.85168977,-0.967807428,-0.021337935,0.006398741,0.24930170438822033,0.002030537,-0.044697295,2.637387104404783,9.981319955251749,0.24621389909462044,-0.271788644,1.5707249641418457,0.313209206,1.781076192855835,8.982000350952148,3.8000733852386475,137.95338439941406,160.89999389648438,-86.9156298,40.3843188,-42.44444444,0.21247995811180004,-0.005568792,0.00979283,0.19048945649156293,0.007411712,0.010098254052103831,-30.70593544,-12.10483981,-38.91153328,9.981319955251749,0.24621389909462044,-0.271788644,Drive
7,-0.072034734,-0.161690075,-0.150535363,32.940243339538576,-34.92274342,-14.72064168,-0.941514645,-0.012598644,0.017233037823829258,0.33508300462972773,0.024193510964729832,-0.035533111,2.458157712973437,9.877505080213824,0.19139677172106265,-0.389492866,0.48251160979270935,0.076157734,1.790655255317688,8.413999557495117,3.998620033,132.0301971435547,160.89999389648438,-86.9156613,40.3843472,-35.625,0.23282176502121305,0.005343431,0.004170664,0.21083126238827565,0.018323935,0.004476087,-30.17962736,-9.122427783,-41.7806073,9.877505080213824,0.19139677172106265,-0.389492866,Drive
8,0.001261931,-0.179508818,-0.170185365,32.42247543334961,-29.14506746,-16.62323171,-0.902051629,0.005016179,0.026860364,0.42956284462259364,0.053023819,-0.014277027,2.253079959979424,9.901369437430668,-0.040166897,-0.697638477,15.340686798095703,1.1988744735717773,1.801112174987793,7.445000171661377,4.068573474884033,128.2727508544922,160.89999389648438,-86.9156624,40.3843353,-32.88888889,0.25109346540501487,-6.11E-04,0.001256936,0.22910296257871848,0.012369657213499662,0.001562359,-30.69727335,-3.345483921,-43.68319725,9.901369437430668,-0.040166897,-0.697638477,Drive
9,0.032800693,-0.108738964,0.071600338,32.35305725097656,-24.02143356,-17.72489159,-0.846870039,0.018470747,0.02415084,0.5301161032278561,0.060617931874342335,0.005753301,2.0228230675447336,9.952771483115779,-0.166004975,-0.530492265,14.391457557678223,1.125077724456787,1.2057251930236816,5.531000137329102,4.112774848937988,116.86692810058594,160.39999389648438,-86.9156317,40.3843212,-22.44444444,0.21899170696156697,0.004702931,0.002379636,0.19700120606468718,0.017683435219014516,0.002685059,-30.76644739,1.7779059614427388,-44.78497902,9.952771483115779,-0.166004975,-0.530492265,Drive
10,0.025420809255062956,0.14373924677233094,0.069962215,31.68193546295166,-19.1265497,-17.61277365,-0.806087988,0.008696579,0.027488812,0.5908241144661764,0.054495212,-0.018420658,1.877079234539884,9.950306123900182,0.3265593086043825,-0.471516737,14.375539779663086,1.2402015924453735,1.2156941890716553,4.8480000495910645,4.707320213317871,97.41468811035156,160.39999389648438,-86.9155767,40.3843083,-27.25,0.16109762044207562,0.009874376,0.002486386,0.1391071191835172,0.022854880042695123,0.002791809,-31.43744738,6.672545866966248,-44.67286118,9.950306123900182,0.3265593086043825,-0.471516737,Drive
11,-0.004863683,-0.153691697,0.21929224891570007,31.36436923980713,-16.15694768,-17.51224571,-0.776736371,0.004951036,0.011599478999026192,0.6296027887214735,0.024301451,-0.006815472,1.7793855215739278,9.924118671602416,-0.085961574,-0.022005837,7.049795150756836,0.9209777116775513,1.2256656885147095,4.696000099182129,5.6460652351379395,91.04416656,160.39999389648438,-86.9155092,40.3843099,-32.5,0.051690725,-0.006173709,0.011975274880154475,0.029700224088884675,0.006806796,0.012280698723241109,-31.75550137,9.641659879684449,-44.57221111,9.924118671602416,-0.085961574,-0.022005837,Drive
12,-0.063267513,0.07283887,0.12748001313325272,31.59665740966797,-16.14852974,-17.84054762,-0.774911138,-0.007091849,0.002579544,0.6320129708178992,-0.004960888,-0.014264714,1.7731976196603867,9.916170532886799,0.2144596049116584,0.1802238353814643,4.9607954025268555,1.142015814781189,1.2356977462768555,3.934999942779541,5.561911582946777,87.01727294921875,160.39999389648438,-86.9154448,40.3843206,-31.66666667,0.018479612,-0.007027709,0.001917052,-0.003510889,0.005952796,0.002222476,-31.52357941,9.650931825637818,-44.90063492,9.916170532886799,0.2144596049116584,0.1802238353814643,Drive
13,0.009625787,-0.031969627,0.035340179,31.790881271362306,-15.7393417,-18.12919968,-0.780402464,-0.016156828,-0.005871061,0.6250163831757111,-0.029366783,-0.017900107,1.7907558679580688,9.935237782672772,0.14567469381862908,0.3279357614375434,6.415266513824463,1.158015489578247,1.2456406354904175,3.928999900817871,5.941308022,86.99723052978516,160.39999389648438,-86.9153754,40.3843246,-31.125,0.007662278,-0.021676182,0.009603053,-0.014328223,-0.008695678,0.009908476,-31.32911137,10.060729751586914,-45.18904293,9.935237782672772,0.14567469381862908,0.3279357614375434,Drive
14,0.042893012,-0.180903637,0.038475246,31.965829429626464,-16.23014768,-18.29438765,-0.783270095,-0.018404529,-0.007975201,0.6213329908917251,-0.035375501,-0.01890866,1.8000330427317943,10.003386691936011,0.00974843,0.38916182248554765,5.3286895751953125,1.0404325723648071,1.255690336227417,3.947999954223633,6.4212775230407715,85.0065918,160.39999389648438,-86.9153046,40.3843428,-29,0.004768167,0.022387848,-0.007559976,-0.017222334,0.035368353,-0.007254552,-31.1542853,9.570045804977417,-45.35423107,10.003386691936011,0.00974843,0.38916182248554765,Drive
15,-0.008800136,-0.047955896,-0.008217015,31.765871353149414,-15.88317972,-17.99597559,-0.787428539,-0.012295623,-0.007763389,0.6162225951268835,-0.027385011,-0.009803197,1.8134114626541877,9.956686066192331,0.046363842,0.26520257457656765,4.775444507598877,1.015135407447815,1.2656807899475098,3.947999954223633,6.478893280029297,85.99401092529297,160.39999389648438,-86.9152277,40.3843601,-33.5,0.002502695,-0.016350543,0.005451664,-0.019487807,-0.003370038,0.005757087,-31.35485336,9.917501792907714,-45.0559412,9.956686066192331,0.046363842,0.26520257457656765,Drive
16,-0.03617316,-0.174211527,-0.004534738,32.09978532791138,-15.97040967,-18.45994167,-0.787119855,-0.010114939,-0.018845422,0.6164038043755752,-0.042128886,0.00730883,1.813027526323612,9.908870234072786,-0.249367547,0.41410351295060327,4.283446788787842,1.0068763494491577,1.2757132053375244,3.9000000953674316,6.676743030548096,85.99850463867188,160.39999389648438,-86.9151428,40.3843666,-25.66666667,0.003124719,-0.00375906,-3.52E-05,-0.018865783,0.009221444,2.701824979829745E-4,-31.02093941,9.830149803161621,-45.519907,9.908870234072786,-0.249367547,0.41410351295060327,Drive
17,0.009522975,0.25001548028107984,0.024721043,32.27326934814453,-16.1653656,-18.57510958,-0.792097241,-0.011849429,-0.020389919,0.6098574278424087,-0.046684794,0.00606709,1.829444058,9.917947843236831,0.18985189194904042,0.4876479625484897,3.9501805305480957,0.9986490607261658,1.285758376121521,3.9000000953674316,6.709399223327637,85.99954223632812,160.39999389648438,-86.9150654,40.3843818,-22.88888889,0.003380417,-0.011345153,0.001418885,-0.018610084,0.001635351,0.001724309,-30.84635744,9.634339780807496,-45.63495323,9.917947843236831,0.18985189194904042,0.4876479625484897,Drive
18,-0.021390017,0.073980927,0.054779322,32.813851280212404,-16.12120163,-19.12813559,-0.804175632,-0.028984085,-0.02022068,0.5933169491082719,-0.066971783,-0.022647343,1.8695349427102839,9.871990564957406,0.29864982199104667,0.7184682290241556,3.598895788192749,0.9986490607261658,1.2957496643066406,3.9000000953674316,7.054052829742432,86.99463653564453,160.39999389648438,-86.9149806,40.3843871,-27,-0.002787361,-0.013800404,0.002154274,-0.024777863,-8.20E-04,0.002459698,-30.30638535,9.678869800567627,-46.18810112,9.871990564957406,0.29864982199104667,0.7184682290241556,Drive
19,-0.004078597,-0.155011481,0.088216112,33.51266731262207,-16.46499765,-19.32492165,-0.808822104,-0.031413424,-0.023798962,0.5867205829296297,-0.075452551,-0.022889027,1.8855951549937424,9.932293160447797,0.073056592,0.8394190250959211,3.3463470935821533,1.0068763494491577,1.3057206869125366,3.9000000953674316,7.403885841369629,87.99551391601562,160.39999389648438,-86.9148907,40.3843869,-27.88888889,-0.019547112,-0.003350764,0.001430747,-0.041537613,0.00962974,0.00173617,-29.60781342,9.334585857391357,-46.38513107,9.932293160447797,0.073056592,0.8394190250959211,Drive
20,-0.005944141,-0.108911473,0.036488567741171825,33.09408550262451,-17.09012569,-19.29124962,-0.81032133,-0.025923225,-0.034693487,0.5843658175283265,-0.086645039,-0.001451288,1.8919586267286135,9.915305295036834,-0.094400338,0.8983509989220251,3.1702394485473633,1.0068763494491577,1.3158230781555176,3.9000000953674316,7.685195446014404,89.99388122558594,160.39999389648438,-86.914794,40.3843897,-27.375,-0.021183946,0.014120653,-0.005235198,-0.043174447,0.027101158,-0.004929775,-30.02651747,8.709823828,-46.35170311,9.915305295036834,-0.094400338,0.8983509989220251,Drive
21,-0.009374396,-0.012819333,-0.084239206,32.859967346191404,-17.35254763,-18.89511566,-0.816842367,-0.017988798,-0.028891965,0.5758480690057995,-0.067971366,0.003894198,1.9136188331159574,9.935442502682026,-0.050024949,0.5917634462507871,3.354358673095703,1.0872442722320557,1.3257629871368408,3.9000000953674316,7.709558963775635,90.99641418457031,160.39999389648438,-86.9147021,40.3843891,-28.22222222,-0.003985334,0.002034181,4.299651453886362E-5,-0.025975835,0.015014685067072403,3.4842009879919945E-4,-30.2597814,8.447157802581787,-45.954837,9.935442502682026,-0.050024949,0.5917634462507871,Drive
22,0.018694349862996815,-0.003648374,-0.026188848,32.59339721679687,-17.12025955,-18.79300173,-0.820851539,-0.01201947,-0.023700445,0.5705162008989204,-0.052650561,0.007317149,1.9270188357066182,9.941722175450002,-0.078446251,0.4936619640635417,2.913687229156494,1.0043903589248657,1.335769534111023,3.9000000953674316,7.660791397094727,90.00267791748047,160.39999389648438,-86.9146125,40.3843894,-26.875,0.008895834,0.010419986708071625,-0.001060087,-0.013094668,0.023400491,-7.55E-04,-30.52720537,8.679079885482787,-45.85284508,9.941722175450002,-0.078446251,0.4936619640635417,Drive
23,0.001705818,-0.019587441,0.009537784,32.903277206420896,-17.14380558,-18.74273767,-0.822514067,-0.011313496,-0.023657022,0.5681256599796628,-0.051797103,0.008269898,1.932872861334421,9.966928157991576,-0.103631871,0.5316044617154934,2.763658285140991,1.0101979970932007,1.3457880020141602,3.9000000953674316,7.699304580688477,90.00001525878906,160.39999389648438,-86.9145222,40.3843883,-26.55555556,0.007638556,-0.018117848,0.001857747,-0.014351945,-0.005137344,0.00216317,-30.21512945,8.655899806022644,-45.80245914,9.966928157991576,-0.103631871,0.5316044617154934,Drive
24,0.04420948,0.007395416,0.029150018124904448,33.24804931640625,-17.2202997,-19.42569365,-0.824769817,-0.013462027,-0.026593267,0.5646773125361471,-0.059104103,0.007830774,1.9411281463011956,9.933251436474254,-0.066357269,0.6132885740834821,2.617187738418579,0.9904544353485107,1.3556724786758423,3.9000000953674316,7.699978351593018,89.00221252441406,160.39999389648438,-86.9144333,40.38439,-29.625,3.439722428984434E-4,0.007846125,0.003435275,-0.021646529,0.020826629856917828,0.003740698,-29.87023548,8.580015855,-46.48565926,9.933251436474254,-0.066357269,0.6132885740834821,Drive
25,0.009322818,-0.003211279,0.004327973,32.54301128387451,-17.00484768,-18.79739363,-0.828406443,-0.013302351,-0.024482704,0.5594290322982348,-0.055476491,0.005357632,1.9538184759708552,9.941829644360588,-0.058319244,0.5550883905690851,2.4881510734558105,0.9904544353485107,1.3657417297363281,3.9000000953674316,7.8573479652404785,89.99800872802734,160.39999389648438,-86.9143397,40.3843883,-28.77777778,9.985003271140158E-4,0.012287427,-2.11E-04,-0.020992001,0.025267932049106233,9.39764577196911E-5,-30.57685942,8.796199884414673,-45.85772503,9.941829644360588,-0.058319244,0.5550883905690851,Drive
26,0.010701679488987599,0.047074095192320135,0.013123099665039951,32.39429355621338,-16.99411171,-18.64367367,-0.832335179,-0.012456952,-0.021223883,0.5537180935294883,-0.04913936,0.002765094,1.9676049288036754,9.944826533493487,0.019607208,0.5016709480760166,2.372555971,0.9904544353485107,1.3757673501968384,3.9000000953674316,7.8993754386901855,89.00181579589844,160.39999389648438,-86.9142433,40.3843861,-26.22222222,-0.001518222,-2.91E-04,0.001988219,-0.023508724,0.012689907061392712,0.002293642,-30.72533348,8.805349874,-45.7037611,9.944826533493487,0.019607208,0.5016709480760166,Drive
27,-0.069159036,-0.045283005,-0.017594133,32.54288921356201,-17.14917372,-18.53192162,-0.834659612,-0.012741058,-0.023417016,0.5501145627892133,-0.053133269,0.004496543,1.9762419624236023,9.857160346,-0.089977681,0.5103449319100496,2.2750439643859863,0.9904544353485107,1.3858622312545776,3.878000020980835,8.067147254943848,89.99824523925781,160.39999389648438,-86.9141483,40.3843847,-29.5,-0.002063833,-0.007241209,3.751076523946978E-4,-0.024054335,0.005739296,6.805313089907676E-4,-30.57759144,8.651507883071899,-45.59200909,9.857160346,-0.089977681,0.5103449319100496,Drive
28,0.062704049,-0.031504923,0.034954225,33.17057941436767,-17.38524363,-19.0761636,-0.835692988,-0.010618501,-0.023726508,0.5485794225942742,-0.051331253,0.008285052,1.9800312750547835,9.975956352011671,-0.11372877,0.5442422848303341,2.2814524173736572,1.0462313890457153,1.395699381828308,3.881000042,7.9816999435424805,90.00000762939453,160.39999389648438,-86.9140532,40.3843816,-27.77777778,-0.0023485,0.008913626,-0.001593837,-0.024339002,0.021894129979858193,-0.001288413,-29.9496574,8.414095840454102,-46.13588497,9.975956352011671,-0.11372877,0.5442422848303341,Drive
29,0.010297192,0.002770075,0.008779378,32.815437393188475,-17.24970171,-18.57632969,-0.838902904,-0.010755305,-0.021740448,0.5437368212394345,-0.048190619,0.005598702,1.9915775118522274,9.949519166668642,-0.052920873,0.488115493,2.254445791244507,1.0462313890457153,1.4057908058166504,3.878000020980835,8.068371772766113,90.00000762939453,160.39999389648438,-86.9139576,40.3843781,-27.75,-0.004898639,0.005841598,-3.37E-04,-0.026889141,0.018822102043416025,-3.11E-05,-30.30443329,8.549515829086303,-45.63629501,9.949519166668642,-0.052920873,0.488115493,Drive
30,0.021817012897972922,-0.047892917,0.015612327358097706,32.30889343261719,-17.31582575,-18.47238562,-0.841317862,-0.010292661,-0.022020413,0.5399912503159162,-0.048187292,0.006463938,2.000514766544972,9.945479695613567,-0.11509707,0.4955702502137193,2.2210350036621094,1.0580170154571533,1.4159221649169922,3.878000020980835,8.187651634216309,90.00000762939453,160.39999389648438,-86.9138626,40.3843754,-26.44444444,-0.004305584,0.003860792,0.00381483,-0.026296085,0.016841296,0.004120254,-30.81085537,8.483391838,-45.53210735,9.945479695613567,-0.11509707,0.4955702502137193,Drive
31,0.056498907,-0.05398488,-0.083790763,32.08294919967651,-17.49784979,-18.20959768,-0.843925574,-0.005407656,-0.016359083,0.5361770055826428,-0.033418401,0.00842078,2.0097362647936183,9.978282437741179,-0.136634819,0.24238654507721946,2.1873576641082764,1.0660675764083862,1.4258002042770386,3.878000020980835,8.209548950195312,90,160.39999389648438,-86.9137674,40.3843753,-27.25,0.006832,0.008735709,4.2255208725833053E-4,-0.015158501,0.021716213333013566,7.279757687198089E-4,-31.03728735,8.301855850219727,-45.26968517,9.978282437741179,-0.136634819,0.24238654507721946,Drive
32,-0.054470997,-0.019287058,-2.66E-04,32.07843536376953,-17.64668957,-18.15786963,-0.844540998,-0.002915279,-0.014051995,0.5352970442725616,-0.026860033,0.010120619929314238,2.011879039042204,9.905437802805483,-0.117280253,0.27011308733156875,2.134232997894287,1.0499999523162842,1.4358015060424805,3.862999916,8.121641159057617,90,160.39999389648438,-86.913672,40.3843737,-31.44444444,0.007413195,-0.001678347,1.1416331207090355E-4,-0.014577307,0.011302157019228829,4.1958685564238903E-4,-31.04180138,8.15325985,-45.21771309,9.905437802805483,-0.117280253,0.27011308733156875,Drive
33,0.072201062,-0.005832871,0.010152353534420717,32.06001333236694,-17.24482168,-18.26095963,-0.845127699,-0.002726768,-0.017025686,0.5342803528007952,-0.031698212,0.013582102113484758,2.0142989135482936,9.989163370965754,-0.140078859,0.32746823390638363,2.101283550262451,1.056030273,1.4457318782806396,3.878000020980835,8.090608596801758,89.00164794921875,160.39999389648438,-86.9135774,40.3843751,-28.125,0.0040565,-0.010692792,0.004170663,-0.017934001,0.002287712,0.004476087,-31.0607114,8.555981884002685,-45.32116909,9.989163370965754,-0.140078859,0.32746823390638363,Drive
34,-0.115350998,0.004798357,0.024397911360630624,32.40027126312256,-17.42904163,-18.54021757,-0.845904458,-0.006288237,-0.020787151,0.5328906453572787,-0.041884511,0.011516434,2.017509740132552,9.856036436210559,-0.111304004,0.44019224760529485,2.002413272857666,0.9822932481765747,1.4557486772537231,3.881000042,8.149039268493652,88.99989318847656,160.39999389648438,-86.9134808,40.3843753,-30.55555556,0.003324419,0.004005748,-0.005344914,-0.018666083,0.016986252789837845,-0.00503949,-30.7203315,8.372249808311462,-45.60006107,9.856036436210559,-0.111304004,0.44019224760529485,Drive
35,0.084382659,0.022854382624325244,-0.022688727,32.017191352844236,-17.06157757,-18.03562569,-0.848374759,-0.002241592,-0.014535844,0.5291717949422817,-0.027030873,0.011596283016418948,2.026364351939229,10.004655791717825,-0.092030747,0.24528464850815898,1.9390044212341309,0.9822932481765747,1.4657018184661865,3.881000042,8.110702514648438,89.00007629394531,160.39999389648438,-86.9133827,40.3843788,-27.88888889,0.004566528,0.016611487,0.004906052,-0.017423973,0.029591991566121578,0.005211476,-31.10267941,8.738127851486206,-45.0953471,10.004655791717825,-0.092030747,0.24528464850815898,Drive
36,-0.034826668,-0.003138267,-0.068515783,31.89250738143921,-17.18394363,-17.83627764,-0.85099299,-0.001653564,-0.007515744,0.5251185517866634,-0.014529235,0.00507989,2.0358815841304447,9.926499820449978,-0.053739777,0.076250894,1.8901993036270142,0.9904544353485107,1.475770115852356,3.881000042,8.208425521850586,88.99982452392578,160.39999389648438,-86.9132824,40.3843805,-28,0.016368334376009055,-0.002722125,-5.98E-04,-0.005622167,0.010258379235221706,-2.92E-04,-31.22638729,8.616371850967408,-44.89624306,9.926499820449978,-0.053739777,0.076250894,Drive
37,0.003914398,0.011207076241669146,-0.05354082,31.896533374786376,-16.50049955,-17.97950563,-0.850592495,0.001017476,-0.003642643,0.5258087145472036,-0.005127027,0.005560499,2.0342652843993845,9.939059266766298,-0.044032002,-0.002599001,1.868736743927002,0.9986490607261658,1.4857269525527954,3.881000042,8.190542221069336,87.00282287597656,160.39999389648438,-86.9131827,40.3843843,-29.11111111,0.033543225,-0.001547875,-0.001676865,0.011552723,0.011432629,-0.001371441,-31.22382532,9.299571819,-45.03934895,9.939059266766298,-0.044032002,-0.002599001,Drive
38,0.039525125,-0.013424286,-0.019722655,31.83589921951294,-15.48582569,-17.96340155,-0.847471907,0.002731954,-0.002588059,0.5308212487442979,-0.001488477,0.007376871,2.0224473059756085,9.973929010904753,-0.084574202,-0.005901528,1.858478069,0.9929753541946411,1.495788812637329,3.9000000953674316,8.200085639953613,85.00279235839844,160.39999389648438,-86.9130879,40.3843951,-26.5,0.035476586085210725,-0.00276957,0.005131413,0.013486084211798548,0.010210934739324797,0.005436837,-31.2838493,10.314611806869507,-45.02361115,9.973929010904753,-0.084574202,-0.005901528,Drive
39,-0.016223833,-0.008659146,-0.023540113,31.79563923,-14.86106369,-17.96022964,-0.84221575,0.002789891,-3.32E-04,0.5391262173652649,0.002449947,0.005052852,2.002778185,9.957679183737746,-0.056341681,-0.044394991,1.8471670150756836,0.9986490607261658,1.5056928396224976,3.9000000953674316,8.299139022827148,82.00408172607422,160.39999389648438,-86.9129887,40.384405,-26.77777778,0.041205502033812326,0.004003125,-8.75E-05,0.019215001200226324,0.016983629713508582,2.1794787890648524E-4,-31.32435343,10.938153800964356,-45.02007305,9.957679183737746,-0.056341681,-0.044394991,Drive
40,-0.019193797,-0.012373246,-0.071117991,31.615445404052736,-13.78685372,-17.88922564,-0.834008338,0.005462423,0.003475622,0.5516702272359607,0.011826033052961224,0.005270101,1.9727709443823804,9.929787126559656,-0.069827444,-0.188940064,1.842871904373169,1.0068763494491577,1.5157321691513062,3.9000000953674316,8.310814857,79.00673676,160.39999389648438,-86.9128929,40.3844198,-28.625,0.05760942,-0.008700126,4.3441319286606267E-4,0.035618919,0.004280379,7.39836859634345E-4,-31.50454733,12.013461761474609,-44.94906902,9.929787126559656,-0.069827444,-0.188940064,Drive
41,0.009354971,-0.01979092,0.031219353,31.51674743652344,-12.40666776,-17.77783966,-0.818847495,0.007557845,0.00604896,0.5738733873783963,0.018576320559148072,0.005421279,1.9189772281831907,9.962299309887932,-0.073393446,-0.158448998,1.8473403453826904,1.0068763494491577,1.5258581638336182,3.9000000953674316,8.350638389587402,76.00793457,160.39999389648438,-86.9127961,40.3844399,-29.22222222,0.056494474772689415,0.00896107,0.003802969,0.034503974,0.021941574,0.004108393,-31.60312334,13.39242774963379,-44.83756115,9.962299309887932,-0.073393446,-0.158448998,Drive
42,-0.020745101,-0.013381394,0.15145987123070123,31.25139738082886,-11.42005384,-17.47881765,-0.809033847,0.004487176,0.001088511,0.5877248529091622,0.007037712,0.006001493,1.885054661232291,9.928518073072711,-0.075083522,0.086777572,1.855249285697937,1.0300484895706177,1.535788655281067,3.9000000953674316,8.272320747375488,74.00951385498047,160.39999389648438,-86.9127014,40.3844585,-29.25,0.022737751,0.003279597,-4.79E-04,7.472500720432083E-4,0.016260102,-1.73E-04,-31.86908325,14.379041709899901,-44.53890511,9.928518073072711,-0.075083522,0.086777572,Drive
43,-0.019368969,-0.024919605,0.063031367,31.215651416778563,-11.17654181,-17.3953697,-0.806532059,-2.40E-04,-0.00780279,0.5911359431651922,-0.01287105,0.008838151,1.876670343371538,9.919533396230161,-0.111184943,0.1896950810270619,1.7995010614395142,0.9822932481765747,1.545708179473877,3.9000000953674316,8.329225540161133,73.99877166748047,160.39999389648438,-86.9126052,40.3844786,-28.55555556,0.003007248,-3.05E-04,0.002231942,-0.018983253,0.012675080754538963,0.002537366,-31.90446323,14.623529691696167,-44.45533516,9.919533396230161,-0.111184943,0.1896950810270619,Drive
44,0.061977543877166454,0.002960288,0.017561101,31.37754539489746,-11.10431777,-17.41171768,-0.806271475,-0.001662604,-0.013431603,0.5913869530251883,-0.02363072,0.0132043,1.8760583250267993,9.970616127680806,-0.127853392,0.25165292629898633,1.748222827911377,0.9822932481765747,1.5557920932769775,3.9000000953674316,8.320096015930176,74.00015258789062,160.39999389648438,-86.9125118,40.3844972,-28.11111111,1.1861111824084254E-5,-0.005497625,-0.003906754,-0.02197864,0.007482879,-0.00360133,-31.74244736,14.69489972114563,-44.47192722,9.970616127680806,-0.127853392,0.25165292629898633,Drive
45,0.046462698,-0.014498889,0.025588468,31.49966745376587,-11.25035174,-17.76149158,-0.807845066,-0.007306667,-0.016900657,0.5891017896457783,-0.035923073,0.008107051,1.8815915862333428,9.933492549414774,-0.094684921,0.3809756968640587,1.704319715499878,0.9765244722366333,1.5656996965408325,3.9000000953674316,8.359426498413086,73.99906158447266,160.39999389648438,-86.912418,40.3845166,-28.125,-0.001885917,-0.008166375,0.001845886,-0.023876418,0.004814129,0.002151309,-31.62032541,14.549719724655152,-44.82145714,9.933492549414774,-0.094684921,0.3809756968640587,Drive
46,0.05931845,-0.00286134,-0.017330597,31.339481391906737,-11.14616377,-17.55287161,-0.809294452,-0.004198684,-0.014684595,0.5871953501284701,-0.028702574,0.010457794,1.8863877902910546,9.955843906958126,-0.10636445,0.26668647212599117,1.671256661,0.9822932481765747,1.5758432149887085,3.9000000953674316,8.326503754,74.02028656,160.39999389648438,-86.9123229,40.3845344,-27.44444444,-0.001328445,0.009020376,0.00402833,-0.023318946,0.022000879805435615,0.004333754,-31.78087736,14.65378568649292,-44.61295918,9.955843906958126,-0.10636445,0.26668647212599117,Drive
47,0.025714596498359756,-0.032662467,0.013840233,31.323011474609373,-11.30525175,-17.49614166,-0.810360661,-0.001633693,-0.012346184,0.5857932550235859,-0.021927405,0.011818807915721125,1.8898845228176673,9.922742165051973,-0.150353817,0.23123812376825997,1.638628602027893,0.9822932481765747,1.585693597793579,3.9000000953674316,8.332247734069824,74.00804901123047,160.39999389648438,-86.9122254,40.3845554,-31.75,0.002336639,0.013302236892626558,-7.04E-04,-0.019653862,0.026282741,-3.99E-04,-31.79637121,14.494331722259522,-44.55635105,9.922742165051973,-0.150353817,0.23123812376825997,Drive
48,0.041168944,-0.03563545,-0.005226901,31.187835330963136,-11.22753779,-17.33241774,-0.81069072,0.002572667,-0.010517688,0.5853728397378644,-0.014043368,0.016485778868053722,1.8909420457858483,9.975009714515464,-0.198926614,0.13182013499939327,1.6122267246246338,0.9822932481765747,1.5958133935928345,3.9000000953674316,8.314741134643555,74.02213287353516,160.39999389648438,-86.9121279,40.3845744,-29.77777778,0.003214361,-0.004228486,0.004277413,-0.01877614,0.008752018,0.004582837,-31.93276737,14.573631715774535,-44.39213921,9.975009714515464,-0.198926614,0.13182013499939327,Drive
49,-0.078324086,-0.004166133,0.009966709,31.34814332962036,-11.28402371,-17.48857767,-0.810414355,0.002989412,-0.013410457,0.5856923518828976,-0.018238503,0.020557136880685983,1.8901714410596682,9.851863537019897,-0.211274042,0.19134450164506012,1.5947765111923218,0.9822932481765747,1.6057078838348389,3.9000000953674316,8.245056152,74.07938385009766,160.39999389648438,-86.9120311,40.3845912,-28,0.003356695,0.006470237,-0.005863837,-0.018633807,0.019450740980264704,-0.005558414,-31.77197142,14.516047744750976,-44.54854305,9.851863537019897,-0.211274042,0.19134450164506012,Drive
50,0.050837711,0.005005846,0.011174534022518732,31.101581268310547,-11.14604181,-17.08866171,-0.811961448,0.006547937,-0.009691407,0.5835916608282663,-0.008096054,0.021947432363640915,1.8952918932275864,9.985762948,-0.207173721,0.090442308,1.5800598859786987,0.9822932481765747,1.6157751083374023,3.9000000953674316,8.155596733093262,74.10159301757812,160.39999389648438,-86.911937,40.3846084,-27.66666667,0.001648695,0.004726653,0.002830358,-0.020341807,0.017707158,0.003135781,-32.01853334,14.654761686325074,-44.14838303,9.985762948,-0.207173721,0.090442308,Drive
51,0.017791592,-0.007696076,0.021720280978255548,31.19564332962036,-11.35978577,-17.22530172,-0.813769832,0.003909151,-0.00996138,0.5810858767766219,-0.011671164,0.017939567028616484,1.9014886480111342,9.969257132520953,-0.189218839,0.140119513,1.5687389373779297,0.9822932481765747,1.6257257461547852,3.881000042,8.051398277282715,74.11092376708984,160.39999389648438,-86.9118497,40.3846278,-32.25,-2.11E-04,-0.007212696,9.750061614725452E-4,-0.022201948,0.005767808,0.00128043,-31.92398335,14.438577756881713,-44.28551109,9.969257132520953,-0.189218839,0.140119513,Drive
52,-0.122286602,-0.118135188,0.537146502,31.53407133102417,-11.91159177,-17.46246971,-0.817126076,-0.001900523,-0.019557745,0.5760375296027915,-0.034198537,0.019351516434362212,1.9138495702187992,9.848753456930512,-0.31122666,0.8785085726565528,1.5709565877914429,1.0068763494491577,1.6357580423355103,3.878000020980835,7.9124274253845215,75.83616638183594,160.39999389648438,-86.911762,40.3846459,-26.22222222,-0.067205059,-0.008984792,-0.006516198,-0.089195561,0.003995712,-0.006210775,-31.58567741,13.887869701385497,-44.52243511,9.848753456930512,-0.31122666,0.8785085726565528,Drive
53,0.070870816,-0.873049999,1.0184485970191586,33.68261329650879,-16.24661775,-16.73083571,-0.849284771,-0.009392647,-0.043393642,0.5255406007026006,-0.083784402,0.029276211,2.0346136475072325,10.029937197861162,-1.16578377,1.8550212313827958,1.6347877979278564,1.0568822622299194,1.6457538604736328,3.881000042,7.656649589538574,86.26815795898438,160.39999389648438,-86.9116772,40.3846588,-31.77777778,-0.203406207,-0.021403376,0.012046441530189432,-0.225396708,-0.008422872,0.012351865397011228,-29.43798946,9.553819828033447,-43.79080112,10.029937197861162,-1.16578377,1.8550212313827958,Drive
54,-0.021652305,-0.472241367,0.025132022,34.47061134338379,-21.70550764,-16.8521036,-0.868556292,0.004740455,-0.086552558,0.4876238541695678,-0.147166329,0.092799472,2.125336693328561,9.879517499682972,-1.404017726,1.4927960900427069,1.707231879234314,1.0484750270843506,1.6557321548461914,3.878000020980835,7.095317840576172,97.29294586,160.39999389648438,-86.9116013,40.3846571,-39.375,-0.184499594,0.010064153283273855,-0.003491615,-0.206490097,0.023044658,-0.003186191,-28.64974741,4.093831946849823,-43.91182529,9.879517499682972,-1.404017726,1.4927960900427069,Drive
55,-0.026857469,-0.253116513,-0.308781034,34.704485397338864,-25.88888748,-16.23087974,-0.89861039,0.032053818,-0.082122919,0.42919650471326215,-0.121623164,0.12875558551654076,2.2582178972299816,9.871322622576963,-1.544241771,0.9011823089377394,1.7873119115829468,1.0317461490631104,1.6658622026443481,3.878000020980835,6.032704830169678,103.6764907836914,160.39999389648438,-86.9115428,40.3846457,-39.55555556,-0.141941926,0.003066097,-0.006551782,-0.163932426,0.016046601660703354,-0.006246358,-28.41489758,-0.088937997,-43.29084522,9.871322622576963,-1.544241771,0.9011823089377394,Drive
56,0.021743635529453315,-0.174746984,-0.338277454,34.992283248901366,-28.3551174,-15.90062573,-0.92465378,0.059286386,-0.0692633,0.3692693322607615,-0.085674489,0.16170590320258466,2.3885980832923965,9.906084473316486,-1.794004393,0.509377871,1.8762503862380981,1.015135407447815,1.675737977027893,3.9000000953674316,4.577589988708496,108.3848648071289,160.39999389648438,-86.9115031,40.3846319,-43.25,-0.091994784,-0.006909098,-0.003491615,-0.113985284,0.006071407,-0.003186191,-28.12783146,-2.555045952,-42.96120129,9.906084473316486,-1.794004393,0.509377871,Drive
57,0.003340629,0.015316033,-0.187237142,34.97532524108887,-29.93208933,-15.33064165,-0.941543448,0.073563228,-0.052836227,0.3243631714756049,-0.052605224,0.17374244983335144,2.4826296625785456,9.884825818,-1.71708546,0.33322378370947053,1.9762014150619507,0.9847334623336792,1.68574059,3.9000000953674316,2.814814805984497,108.37725830078125,160.39999389648438,-86.9114875,40.3846235,-43.77777778,-0.03851303,-0.00202232,-0.007227865,-0.060503531,0.010958184792153826,-0.006922441,-28.14442354,-4.132261932,-42.39060711,9.884825818,-1.71708546,0.33322378370947053,Drive
58,-0.003979581,0.6409586575424787,0.001805884,34.97581329345703,-30.35420935,-15.24133774,-0.954460207,0.050997486139096104,-0.036981257,0.2908323499762896,-0.040803452,0.11919010683749486,2.552450448563955,9.885142344872929,-0.532426268,0.406332647,2.0807926654815674,1.125077724456787,1.0186933279037476,3.9000000953674316,1.4260578155517578,102.87942504882812,161.1999969482422,-86.9114875,40.3846216,-38.5,-0.002692472,-4.69E-04,8.614132371821522E-4,-0.024682973,0.012511990485188453,0.001166837,-28.14454556,-4.553649869,-42.30130341,9.885142344872929,-0.532426268,0.406332647,Drive
59,0.023298124665195503,0.2700893974419936,0.017618718656521398,35.077317276000976,-30.42972734,-15.27635168,-0.965224916,0.008926686,-0.025497776,0.25990750054711276,-0.044567536,0.030490644393687687,2.6162017132472064,9.928152204717247,-0.031742651,0.45890505250217845,45,0.084852815,1.028707504272461,3.9000000953674316,1.3909231424331665,103.1328125,161.1999969482422,-86.9114915,40.384621,-39.33333333,0.001352167,1.7198613049118844E-4,7.072188072042196E-4,-0.020638334,0.013152490568898835,0.001012642,-28.04328543,-4.629411898,-42.33643921,9.928152204717247,-0.031742651,0.45890505250217845,Drive
60,0.009183893,0.043725688762676254,0.004131659,35.15808135986328,-30.45473726,-15.19875976,-0.967076765,-0.001797637,-0.023187511,0.25341623161847776,-0.045775362,0.00827529,2.629219399048732,9.939407774545614,-0.038247412,0.4594161388943496,45,0.086023256,1.038657307624817,3.9000000953674316,1.3208571672439575,103.4561538696289,161.1999969482422,-86.9114942,40.3846207,-45,0.001456636,1.5271181921259715E-4,5.16870777713708E-4,-0.020533865,0.013133216264227835,8.222943668862662E-4,-27.96264341,-4.655885906,-42.25835911,9.939407774545614,-0.038247412,0.4594161388943496,Drive
61,1.7957779967669145E-4,0.005131961,0.002462057,35.182237434387204,-30.56929552,-15.23011372,-0.967382032,-0.003679219,-0.02281014,0.2522659226528649,-0.046005132,0.004390042,2.6315120099817664,9.936567769467253,-0.038502956,0.45988076896343416,45,0.086023256,1.0486830472946167,3.9000000953674316,1.2099415063858032,103.72193908691406,161.1999969482422,-86.9114978,40.3846212,-56.66666667,0.001352167,1.9570834735788188E-4,4.344132279036838E-4,-0.020638334,0.013176212756379136,7.398368426806574E-4,-27.93787739,-4.768857965,-42.29068939,9.936567769467253,-0.038502956,0.45988076896343416,Drive
62,-0.009637879,-0.003145298,8.903140003241382E-4,35.15063949584961,-30.54587141,-15.27927965,-0.967436558,-0.003982386,-0.022772853,0.25205563341529624,-0.046086784,0.003774652,2.6319326197059407,9.922022097319076,-0.040640234,0.45890505394889314,45,0.086023256,1.058688998222351,3.9000000953674316,1.0884844064712524,104.02253723144531,161.1999969482422,-86.9114997,40.3846213,-61.125,0.001577528,7.709722685654765E-5,4.937187898497197E-4,-0.020412973,0.013057602,7.991423989754641E-4,-27.96947538,-4.745799947,-42.33924522,9.922022097319076,-0.040640234,0.45890505394889314,Drive
63,-0.019635312,-0.008771159,-8.73E-04,34.64287536621094,-30.28576744,-15.66223773,-0.967353941,-0.00358341,-0.022962143,0.25236048686851575,-0.046250304,0.004656607,2.6313214186325813,9.882279127546884,-0.054883917,0.45739501830443596,45,0.086023256,1.0686455965042114,3.9000000953674316,0.9574368596076965,104.63127899169922,161.1999969482422,-86.9115016,40.3846209,-56.33333333,0.001577528,4.15138891238032E-5,7.309410359384944E-4,-0.020412973,0.013022018307187026,0.001036365,-28.47772747,-4.486061945,-42.72244717,9.882279127546884,-0.054883917,0.45739501830443596,Drive
64,0.001451622,0.1911969646332261,0.022477535,33.38920337677002,-29.44933537,-16.6605637,-0.967931367,-0.010099901,-0.022029478,0.2499750027957472,-0.047694264,-0.008541428,2.635913024828272,9.886041659575243,0.27872644980491784,0.492886954,45,0.086023256,1.0785975456237793,3.9000000953674316,0.8369086384773254,105.01709747314453,161.1999969482422,-86.9115024,40.3846207,-40.375,-0.001043778,6.523611277197172E-5,6.834965756443302E-4,-0.023034279,0.013045740530835194,9.889201915515497E-4,-29.73127743,-3.649141958,-43.72065102,9.886041659575243,0.27872644980491784,0.492886954,Drive
65,0.017854385005617604,0.40541212767073254,0.023074708806658253,33.32417717,-29.28780748,-16.66263763,-0.970350707,-0.035566539,-0.017108065,0.23815934577034514,-0.050157196,-0.060922169,2.658707600195431,9.913560043260889,1.0176494616327934,0.5197536023785767,1.5824300050735474,0.9840731620788574,1.0377525091171265,3.9000000953674316,0.541754961,117.94316864013672,161.5,-86.9115008,40.3846196,-44.11111111,-0.003107611,0.002911903,-0.00483192,-0.025098113,0.015892407377657382,-0.004526497,-29.79630344,-3.488101935,-43.72272499,9.913560043260889,1.0176494616327934,0.5197536023785767,Drive
66,0.016397281757836203,0.1378181634597408,0.028391500699867324,33.19107513427734,-29.17873941,-16.54710373,-0.971866736,-0.061614897,-0.012367645,0.22692228535425316,-0.052351792,-0.11440465,2.6798267225617343,9.969657786841532,1.282201561534289,0.5514846360220492,1.6784625053405762,0.888650656,1.0478243827819824,3.9000000953674316,1.405606985092163,123.30848693847656,161.5,-86.9114809,40.3846171,-16.5,-0.004780028,-0.003718459,0.006044719,-0.026770529,0.009262046,0.006350143,-29.92891747,-3.378545952,-43.60706913,9.969657786841532,1.282201561534289,0.5514846360220492,Drive
67,0.059724039,-0.08296903,0.042106558975664156,33.38017551422119,-29.97808336,-16.58406986,-0.971696692,-0.071944888,-0.012000502,0.2246710293501326,-0.05618352,-0.134832029,2.6833551277234715,10.02421356867818,1.2689132702003405,0.6032061948648935,1.3971998691558838,0.8949860334396362,1.0577362775802612,3.9000000953674316,2.555767536,123.81397247314453,161.5,-86.9114485,40.384605,-37.22222222,-0.008231612,0.001369958,0.013351164069885695,-0.030222113,0.014350462909471425,0.013656587598763984,-29.73896353,-4.178255906,-43.64391312,10.02421356867818,1.2689132702003405,0.6032061948648935,Drive
68,-0.065027894,-0.204444167,-0.028324965,33.52462333679199,-30.7460733,-16.49708357,-0.971025799,-0.060793179,-0.014636014,0.23056549137657129,-0.056818277,-0.111547847,2.672167185440804,9.867945467384116,0.9094874945659082,0.5368779643068036,1.3474876880645752,0.916787863,1.0677852630615234,3.9000000953674316,3.638807773590088,123.27982330322266,161.5,-86.9114052,40.3845854,-41.125,-0.007496223,-0.002105347,-6.92E-04,-0.029486724,0.010875157026904047,-3.87E-04,-29.59549145,-4.9466119,-43.55680511,9.867945467384116,0.9094874945659082,0.5368779643068036,Drive
69,-0.00544979,-0.134934142,-0.117553543,33.43495319366455,-30.27015137,-16.49805975,-0.970641782,-0.041809,-0.015328182,0.23628214273888332,-0.049677912,-0.073969789,2.6621605914372664,9.883545227,0.5953685383773545,0.37192420687219035,0.9535646438598633,0.888650656,1.0777486562728882,5.106999874,4.498178482055664,121.82966613769531,161.5,-86.9113584,40.3845646,-36.88888889,0.010971756477374583,0.007024743,-0.001209947,-0.011018745,0.020005247972641464,-9.05E-04,-29.68516138,-4.469347901,-43.55790302,9.883545227,0.5953685383773545,0.37192420687219035,Drive
70,-0.026972039,-0.258771325,-0.284855773,33.37370933532715,-28.78870541,-16.69020973,-0.968322547,-0.024742509,0.006509227,0.24765533570525716,6.087967351438405E-4,-0.051388974,2.6407124672121216,9.863165614674392,0.25018064007705565,-0.290777319,0.9964417815208435,0.9280086159706116,1.036448359489441,6.314000129699707,5.051024913787842,116.4727783203125,161.5,-86.9112963,40.3845412,-30.44444444,0.11824342319108908,0.008783153,-0.005341948,0.096252922,0.021763658,-0.005036525,-29.74579531,-2.988389937,-43.75029728,9.863165614674392,0.25018064007705565,-0.290777319,Drive
71,0.077489288,0.025169187,-0.133901117,32.930605545043946,-25.22959959,-17.31289776,-0.95065515,0.002425179,0.021561501818953208,0.3089594479324748,0.042413605,-0.008818586,2.513335862206024,10.015809642458425,0.11305506302278887,-0.555857927,1.0546332597732544,0.949999988,1.046505093574524,7.520999908447266,5.222204685211182,106.77141571044922,161.5,-86.9112302,40.3845236,-36.375,0.15208317614296107,0.002828875,0.005677025,0.13009267379936662,0.015809379685873582,0.005982448,-30.18938744,0.5703499895147979,-44.372985,10.015809642458425,0.11305506302278887,-0.555857927,Drive
72,0.006358193,-0.126321177,-0.447787326,32.025609226226806,-20.95801365,-18.26644964,-0.925423453,0.002545962,0.047875292997047736,0.37464464868156655,0.090798134,-0.031867356,2.3736583052329645,9.977210905945416,0.1929068054068038,-1.35612352,1.1292924880981445,1.0625441074371338,1.0564031600952148,8.727999687194824,5.361079216003418,93.48033905029297,161.5,-86.9111635,40.3845133,-33.44444444,0.25070832047647645,0.012234736826198482,0.001691691,0.22871781856689638,0.025215241232394124,0.001997115,-31.09438343,4.841447906494141,-45.32617115,9.977210905945416,0.1929068054068038,-1.35612352,Drive
73,-0.014838626,-0.211179825,-0.39586834,31.32728147506714,-13.90372977,-18.20020361,-0.864030819,0.019820228716340458,0.083195282,0.4935732382593803,0.1642604130275041,-0.048622109,2.1075672825563303,9.943409039424015,0.279166477,-2.044641063,1.2142468690872192,1.112519622,1.0664809942245483,9.93500042,5.719894886016846,74.98542785644531,161.5,-86.9110921,40.3845196,-33.25,0.3651561867264868,-0.003694736,0.003885997,0.34316568582960705,0.009285768,0.00419142,-31.79307743,11.896097779273987,-45.26041306,9.943409039424015,0.279166477,-2.044641063,Drive
74,-0.038750648,-0.448053471,-0.129711342,30.679339332580568,-6.031313837,-16.18342177,-0.741087085,0.039253115,0.086305764,0.6611951381257437,0.1822190694149258,-0.056240457,1.6897658618908484,9.910856515458487,0.11983569365930608,-1.961167897,1.300183653831482,1.0400961637496948,1.0764375925064087,9.93500042,5.963651657104492,59.76936721801758,161.5,-86.9110252,40.3845466,-38.33333333,0.3552996021451302,-0.005556931,0.003945302,0.33330910211627923,0.007423574,0.004250726,-32.44077539,19.768391523361206,-43.24338703,9.910856515458487,0.11983569365930608,-1.961167897,Drive
75,0.032078595,-0.327666894,-0.015389971,29.716393489837646,-0.166529997,-13.49734773,-0.585240065,0.052270281,0.071239487,0.8040911798338288,0.16889573691539395,-0.053725397,1.2628560980546821,9.984162849129982,0.2162832895528923,-1.714306418,1.385833978652954,1.023425579071045,1.0864864587783813,9.93500042,5.8116960525512695,42.71320724487305,161.5,-86.9109721,40.3845889,-35.25,0.30515082426441525,0.014417181,0.011228025034160434,0.2831603251035931,0.027397686,0.011533448660239866,-33.40311127,25.633907527923583,-40.55731331,9.984162849129982,0.2162832895528923,-1.714306418,Drive
76,-0.008028382,-0.371490671,-0.28354651,28.70501340866089,3.691719934940338,-10.0141258,-0.39975363,0.074480003,0.060178018,0.9088963113942192,0.18590337978404703,-0.050483533,0.8333830179520023,9.933210854391449,0.13702975114518143,-2.156360082,1.4704053401947021,1.0400961637496948,1.0963979959487915,9.93500042,5.603593826293945,18.630952835083008,161.5,-86.9109383,40.3846428,-31.11111111,0.34590560313567376,-0.01536607,-0.011699504,0.32391510310682275,-0.002385566,-0.011394081,-34.41534534,29.491425437927248,-37.07421333,9.933210854391449,0.13702975114518143,-2.156360082,Drive
77,0.095732643,-0.393709246,-0.088441037,28.298875408172606,5.869175896644593,-5.967019868,-0.189294925,0.086633577,0.044467944,0.9755631204947685,0.18734751482611722,-0.053902028,0.3883719092723235,10.097348574295784,0.1606095093189404,-1.980040426,1.5528136491775513,1.0317461490631104,1.1064237356185913,9.93500042,6.117465972900391,355.6489258,161.5,-86.9109263,40.3847064,-28.625,0.3381602972456553,-0.004311514,0.019768025543545238,0.3161697980848331,0.00866899,0.020073449182057373,-34.82123936,31.669491329193114,-33.02722939,10.097348574295784,0.1606095093189404,-1.980040426,Drive
78,-0.027301779,-0.239984861,-0.212224451,27.939829425811766,4.973939909934997,-1.39555797,-0.003135084,0.093817174,0.036439826,0.9932293358903664,0.18864797499890512,-0.072488246,0.013140228,9.898250607610906,0.4950151841147143,-2.111131668,2.4482333660125732,0.092195444,1.1164416074752808,9.93500042,7.144423961639404,338.85980224609375,161.5,-86.9109486,40.3847727,-30.11111111,0.33427441578644973,0.008775056,-0.014096475,0.3122839119571906,0.021755560243596286,-0.013791052,-35.18004143,30.77364538192749,-28.45552347,9.898250607610906,0.4950151841147143,-2.111131668,Drive
79,-0.087491517,-0.381428204,0.195434124,27.805263538360595,3.014741930961609,2.317877941131592,0.16879417508551217,0.09332484,0.025572048,0.980324676,0.17597254011237506,-0.081221695,-0.333798015,9.845559157214119,0.4400063994390329,-1.571349791,2.391294240951538,0.15620499849319458,1.126416802406311,9.935999870300293,7.763296604156494,320.6148681640625,161.5,-86.9109984,40.384835,-26.88888889,0.2670054888551675,-0.016824987,-0.005175893,0.24501498817529493,-0.003844483,-0.004870469,-35.3146072,28.81505744934082,-24.74269751,9.845559157214119,0.4400063994390329,-1.571349791,Drive
80,-1.31E-04,-0.245448153,0.7318516856837041,27.354961471557615,1.9402879613637924,4.026853928565979,0.1683737657313208,0.034140611,0.016949441519032403,0.9845678979910694,0.061427476,-0.045654438,-0.33713549,9.860372034091395,0.20673813494216217,0.1248100930237148,1.8717314004898071,0.078102499,1.1364728212356567,9.937000274658203,8.569357872009277,315.28778076171875,161.5,-86.9110705,40.3848919,-29.25,0.040944558,-0.004643625,-0.012743282,0.018954057,0.008336879,-0.012437858,-35.76515316,27.740725498199463,-23.03347755,9.860372034091395,0.20673813494216217,0.1248100930237148,Drive
81,0.025978208745567544,-0.413572808,0.7461294971623467,27.781107482910155,1.2120699644088746,2.7571999430656433,0.071635039,-0.027736965,0.004985283,0.9963670355602375,-0.056424286,-0.006779787,-0.143594144,10.028883063677446,-0.345698989,1.311557204109951,0.9758923053741455,0.078102499,1.1464956998825073,9.937999725341797,8.551426887512207,320.885498,161.5,-86.911146,40.3849482,-26.11111111,-0.094746562,-0.001536014,0.005641441,-0.116737062,0.011444490462274842,0.005946865,-35.33827534,27.011531372070312,-24.30276564,10.028883063677446,-0.345698989,1.311557204109951,Drive
82,-0.02930587,0.22724924858623338,0.17190244388811796,27.702539443969727,2.767935947179794,2.075829949378967,-0.014304145,-0.048529692,-0.001026392,0.9986212404028884,-0.097067497,6.776359559543142E-4,0.028680276358923965,9.910625609,0.2228805043403274,1.1415460818232253,0.9568967223167419,0.10816653817892075,1.156383752822876,9.937999725341797,9.136295318603516,325.8797607421875,161.5,-86.9112122,40.3850109,-21.25,-0.088187366,0.007288653,0.001015608,-0.110177868,0.020269157695561393,0.001321031,-35.41794132,28.568007469177246,-24.98389158,9.910625609,0.2228805043403274,1.1415460818232253,Drive
83,0.09861423,0.099636712,0.1083891420688444,27.818927516937254,4.250967913,0.7723819864727557,-0.063058009,-0.051580862,0.005637265,0.9965298806579368,-0.102173605,-0.017814757,0.1254584582395924,10.066947529616865,0.2768704875652651,1.1219898910777082,0.9020384550094604,0.37643060088157654,1.1665513515472412,9.93999958,9.623559951782227,330.45001220703125,161.5,-86.9112736,40.3850837,-31.33333333,-0.07788006,-0.003160986,0.016257136227739343,-0.099870561,0.009819518,0.01656256,-35.30130917,30.05116144180298,-26.2878274,10.066947529616865,0.2768704875652651,1.1219898910777082,Drive
84,0.020146018093072093,-0.050670967,-0.032904344,27.374481410980223,4.128601927757263,0.21923399239778518,-0.102579933,-0.056394103,0.016772696,0.9929385804435582,-0.108870872,-0.044877656,0.20344335578599024,10.012159486418788,0.4015353866140765,1.0652648952690142,0.8971388339996338,0.23600848019123077,1.1764014959335327,9.93999958,10.29102897644043,333.8074645996094,161.5,-86.9113296,40.3851633,-29.75,-0.064477003,7.294583545762647E-4,0.003079441,-0.086467504,0.013709962816719073,0.003384865,-35.74551109,29.92806339263916,-26.84073153,10.012159486418788,0.4015353866140765,1.0652648952690142,Drive
85,0.017373705,-0.069818786,0.027803818577701606,27.54479351043701,4.050521941184997,-0.677709981,-0.137526224,-0.055600502,0.015243428677899165,0.9887654625096367,-0.106080703,-0.045455097,0.27399025553638495,9.977565163547553,0.3838825118773192,1.0887285005120397,0.7163091897964478,0.086023256,1.1864252090454102,9.93999958,10.85443401,337.92193603515625,161.5,-86.9113826,40.3852508,-27.22222222,-0.064216058,0.002567931,0.002948969,-0.086206559,0.015548435,0.003254393,-35.5743454,29.849739379882813,-27.73779751,9.977565163547553,0.3838825118773192,1.0887285005120397,Drive
86,-0.01968768,-0.086485172,-0.014027934,27.587981510162354,5.309683876037598,-1.318331959,-0.164559617,-0.05090641,0.009848578,0.9849736885382578,-0.097293319,-0.036140215,0.3293135163302605,9.895192822206367,0.27456478257234057,0.9523114709599504,0.6932793259620667,0.16124515235424042,1.1964746713638306,9.93999958,11.243160247802734,340.9068298339844,161.5,-86.9114309,40.3853455,-24.75,-0.053355159,0.00731842,-0.002807548,-0.075345661,0.020298924490187067,-0.002502124,-35.53225533,31.109999446868898,-28.37817553,9.895192822206367,0.27456478257234057,0.9523114709599504,Drive
87,-0.041589644,-0.177545506,-0.034453243,27.71486156463623,5.048359899520874,-2.245775945,-0.186475538,-0.046427788,0.003754746,0.9813336996198858,-0.089900295,-0.024678318,0.37445064974062653,9.936756532169083,0.06984777,0.8650808892782452,0.6485694646835327,0.12806248664855957,1.2064754962921143,9.940999984741211,11.405673027038574,343.92510986328125,161.5,-86.9114724,40.3854441,-25.66666667,-0.050409725,6.108472589403391E-4,-0.001487087,-0.072400227,0.013591351639705448,-0.001181663,-35.40439949,30.847577457427978,-29.30598545,9.936756532169083,0.06984777,0.8650808892782452,Drive
88,0.001680717,-0.164412165,-0.207139311,27.956055374145507,5.898089900016784,-2.718281941,-0.185286804,-0.035098882,-0.004403721,0.9819888744539428,-0.070561895,-0.004446238,0.3727774423302956,9.914605501786019,-0.120338071,0.4934006093739017,0.6069978475570679,0.13038404285907745,1.2165526151657104,9.93999958,11.536497116088867,344.9756774902344,161.5,-86.9115088,40.3855459,-22,-0.019867362,0.002010458,-0.001724309,-0.041857864,0.014990962857552307,-0.001418886,-35.16357136,31.69791738510132,-29.77788149,9.914605501786019,-0.120338071,0.4934006093739017,Drive
89,-0.016414531,0.022202144,-0.187756887,28.097209415435792,5.733999881744385,-2.74182795,-0.16877359,-0.022183761,-0.008803088,0.9853605344457533,-0.046712661,0.009853067,0.3395051594498088,9.933779957225022,-0.075995349,0.2774599807391178,0.5523618459701538,0.33105891942977905,1.2265163660049438,9.939000129699707,11.469730377197266,345.0094909667969,161.5,-86.9115424,40.3856465,-27.25,0.001221695,-3.38E-04,-3.72E-04,-0.020768807,0.012642462743509525,-6.67E-05,-35.02302731,31.532729320526123,-29.80154942,9.933779957225022,-0.075995349,0.2774599807391178,Drive
90,0.004350912,0.1323916372454282,-0.120608865,28.461989440917968,5.535383901596069,-2.79892396,-0.158861579,-0.01175853,0.005566934,0.9871912720133957,-0.021481946,-0.014762088,0.31897882755520274,9.924118690120364,0.2789700155087647,0.092408256,0.5501935482025146,0.2126029133796692,1.2364376783370972,9.940999984741211,11.791735649108887,344.98638916015625,161.5,-86.9115773,40.3857491,-28.77777778,0.015217806569761733,0.002378153,-0.001985254,-0.006772695,0.015358657389088055,-0.00167983,-34.65812508,31.33594331741333,-29.85864544,9.924118690120364,0.2789700155087647,0.092408256,Drive
91,-0.014874014,0.017376221788739696,0.044900024,29.22461145401001,4.950271892547607,-2.123531947,-0.156045269,-0.009797817,0.008845902,0.9876581360992877,-0.016598025,-0.020537597,0.31322963665989995,9.879467193896954,0.2203726387860325,0.21063453977694735,0.5548567175865173,0.15620499849319458,1.2465310096740723,9.940999984741211,12.138981819152832,344.01641845703125,161.5,-86.9116141,40.3858548,-29.75,0.008136723,0.00394382,-0.004701448,-0.013853779,0.016924324107482958,-0.004396025,-33.89452736,30.750709342956544,-29.18361938,9.879467193896954,0.2203726387860325,0.21063453977694735,Drive
92,-0.004200435,-0.02906464,0.008830038,28.495173358917235,6.222853875160217,-2.209175931,-0.158257952,-0.010233105,0.006411286,0.9873221996918465,-0.018182272,-0.015900723,0.31773391944690815,9.894211269119412,0.12633464640476605,0.18680859496364893,0.47852209210395813,0.3275667726993561,1.256437063217163,9.940999984741211,12.481573104858398,343.9508056640625,161.5,-86.9116537,40.3859614,-28.77777778,0.003131334,-0.001429264,-0.00355092,-0.018859168,0.011551240370925335,-0.003245497,-34.62481915,32.022071323394776,-29.26914146,9.894211269119412,0.12633464640476605,0.18680859496364893,Drive
93,3.560260661597391E-4,-0.017459676,0.025449043049395662,28.080373516082762,6.411709871292114,-2.031177943,-0.161214855,-0.012316833,8.322671949570982E-4,0.9868408956574005,-0.024044608,-0.005614844,0.3238011213760931,9.889602781499473,0.039835851,0.263309223,0.48062455654144287,0.37589892745018005,1.2664161920547485,9.942000389099121,12.736719131469727,343.95477294921875,161.5,-86.911694,40.3860715,-28.125,0.001281,0.00383707,-0.005697782,-0.020709501,0.016817573964871574,-0.005392358,-35.03925346,32.21226942062378,-29.09126558,9.889602781499473,0.039835851,0.263309223,Drive
94,0.034801825736332864,-0.020531454,-0.006100167,27.35508343,6.2925158929824825,-1.997749941,-0.160413308,-0.011262284,-9.52E-04,0.9869845428513092,-0.022537828,-0.001734652,0.322219725,9.970078875717608,-0.006562839,0.2224163499127314,0.4758763015270233,0.12806248664855957,1.276553988456726,9.942000389099121,13.014216423034668,343.99822998046875,161.5,-86.9117359,40.3861859,-28.11111111,2.2536112465760082E-4,-0.002176514,0.002628719,-0.02176514,0.01080399,0.002934143,-35.76478733,32.09234350204468,-29.05783747,9.970078875717608,-0.006562839,0.2224163499127314,Drive
95,-0.039506435,-0.002611343,0.020098894,27.96740140914917,6.895927854,-2.179163948,-0.162432083,-0.014453765,-0.002214567,0.9866079613566399,-0.029244127,-3.32E-04,0.3263415780204993,9.900637627,0.002456709,0.30780294900579214,0.4497945308685303,0.5240228772163391,1.2864125967025757,9.944999694824219,13.239156723022461,343.9170227050781,161.5,-86.9117781,40.3863008,-29,-0.001233442,-0.008551861,-0.003312672,-0.023223943,0.004428643,-0.003007248,-35.15259129,32.69526725769043,-29.23900742,9.900637627,0.002456709,0.30780294900579214,Drive
96,0.055061183,-0.008160797,0.036143099,27.547721481323244,6.451481866836548,-2.893229949,-0.167679382,-0.019696295,-0.004729441,0.9856296679348622,-0.040422425,0.002711646,0.33707511048872496,9.924972358259183,-0.034942761,0.4353369079231854,0.43710947036743164,0.22627416253089905,1.2964423894882202,9.944999694824219,13.59991741,343.9833984,161.5,-86.9118219,40.3864197,-27.33333333,-0.002941556,-0.00586532,6.597743627334972E-4,-0.024932057,0.007115185,9.651980068968628E-4,-35.57275928,32.25204137802124,-29.95307339,9.924972358259183,-0.034942761,0.4353369079231854,Drive
97,0.004117132,-0.065835677,0.007332857,28.231653537750244,6.684989852905273,-2.632027938,-0.168610559,-0.019578268,-0.008361113,0.9854504853776358,-0.041416909,0.009875351,0.339120392,9.930672775194482,-0.163943197,0.41869750009506074,0.7997239232063293,0.29206162691116333,1.306617021560669,9.954000473022461,13.734758377075195,343.99114990234375,161.5,-86.911866,40.38654,-24.55555556,-0.002360361,0.005319709,7.857981271300357E-5,-0.024350862,0.018300213118635333,3.8400346252759826E-4,-34.88833939,32.48445127487182,-29.69248148,9.930672775194482,-0.163943197,0.41869750009506074,Drive
98,0.059813861,-0.015138776,-0.023004807,28.056217365264892,7.037203865,-2.815271928,-0.165243794,-0.016396426,-0.010779086,0.9860572108944643,-0.035910029,0.015839337615422833,0.33235973090801424,9.997091034,-0.172582333,0.33399912890372346,0.38176947832107544,0.5663920640945435,1.3163983821868896,9.953000069,13.846680641174316,343.95672607421875,161.5,-86.9119093,40.3866588,-32.5,2.1350001283351657E-4,-3.62E-04,0.003328524,-0.021777001,0.012618740506863528,0.003633948,-35.06401943,32.836055297851566,-29.87523743,9.997091034,-0.172582333,0.33399912890372346,Drive
99,-0.048054241,-0.015731175,-0.008669903,27.893835468292238,6.624599847793579,-3.01596195,-0.162792661,-0.013512228,-0.011203569,0.9865018083053885,-0.030313832,0.017703176331389875,0.32735867060503915,9.893015962380629,-0.193162908,0.2918006955475833,0.4013502,0.098994948,1.3264719247817993,9.953000069,13.919177055358887,343.9996337890625,161.5,-86.9119536,40.386782,-24.11111111,0.002372222,0.004845264,-0.001807337,-0.019618279,0.017825768629848523,-0.001501913,-35.22603531,32.424549427032474,-30.0760495,9.893015962380629,-0.193162908,0.2918006955475833,Drive
100,0.025239028,-0.060279783,-0.011552289,28.319859390258788,6.400119867324829,-2.190265944,-0.157920374,-0.011803049,-0.014047905,0.9872783104192864,-0.027749984,0.024013875142752546,0.31755771,9.969625825,-0.298934405,0.267673801,0.36339226365089417,0.4601086974143982,1.336435317993164,9.953000069,13.919819831848145,343.99981689453125,161.5,-86.9119973,40.3869025,-26.375,0.003285528,-0.003884514,0.002332191,-0.018704973,0.00909599,0.002637615,-34.79964523,32.19970336914062,-29.2505974,9.969625825,-0.298934405,0.267673801,Drive
101,-0.004454733,-0.08117058,-0.036366394,27.788793449401854,7.034031858444214,-2.812465944,-0.15406774,-0.012376818,-0.017568359,0.9878258410009365,-0.029883708,0.030899972,0.30990175049281815,9.957987007585544,-0.389597409,0.25755076779468544,0.35984253883361816,0.47423622012138367,1.3464348316192627,9.951999664,13.871716499328613,344.0113830566406,161.5,-86.9120409,40.3870231,-26,0.005966139,-0.00106157,0.002083108,-0.016024362,0.011918934901330837,0.002388531,-35.33071136,32.834347343444826,-29.87279737,9.957987007585544,-0.389597409,0.25755076779468544,Drive
102,0.045269392069103645,-0.057582428,-3.31E-04,27.804653511047363,6.598369855880737,-2.670457966,-0.149815339,-0.012468038,-0.019607136,0.9884396820392424,-0.03054522,0.03503316,0.3013808246955131,10.032271903695412,-0.406007409,0.3098618218367829,0.3637838661670685,0.25612497329711914,1.3565603494644165,9.951999664,13.711349487304688,344.01019287109375,161.5,-86.9120848,40.3871436,-26.25,0.005752639,-0.003635431,0.00552283,-0.016237862,0.009345074,0.005828254,-35.31631512,32.39770925521851,-29.73042343,10.032271903695412,-0.406007409,0.3098618218367829,Drive
103,-0.054182691,-0.044633641,0.030912739776291893,27.835397510528566,6.115127863883973,-2.537599959,-0.147769678,-0.009512692,-0.018863347,0.9887938441582096,-0.024403878,0.034495654,0.2971137490087343,9.976165419643365,-0.395791452,0.2742511614932774,0.3910910189151764,0.16401219367980957,1.3665053844451904,9.942999839782715,13.478202819824219,344.0057373046875,161.5,-86.9121284,40.3872622,-28.22222222,0.001482639,0.012377070249465195,0.004704413,-0.020507862,0.025357574611016124,0.005009837,-35.28410732,31.915199489593505,-29.59768747,9.976165419643365,-0.395791452,0.2742511614932774,Drive
104,-0.01224306,-0.044001632,0.047059815,27.83381145477295,5.884547882080078,-2.661063955,-0.153407366,-0.011227568,-0.021166059,0.9878625864019761,-0.028707404,0.038365843,0.30867785616562915,9.972666268209808,-0.425167414,0.33239617106477615,0.3618614673614502,0.6929646730422974,1.3764233589172363,9.944000244140625,13.323659896850586,344.0967102050781,161.5,-86.9121706,40.3873785,-31.75,-0.004123219,-0.006872032,0.005086478,-0.02611372,0.006108473,0.005391902,-35.28557148,31.683521385192872,-29.72078533,9.972666268209808,-0.425167414,0.33239617106477615,Drive
105,-0.035456259,-0.011786263,0.024814867568247526,28.108067436218263,5.679099931716919,-2.74231596,-0.162315091,-0.015411314,-0.021516612,0.9863831898541127,-0.037422761,0.037452996536655334,0.32688932598215864,9.964616581074242,-0.386780615,0.39922677512163096,0.7863921523094177,0.7496665716171265,1.386583685874939,9.975999832,13.105481147766113,344.1145935058594,161.5,-86.912212,40.3874934,-29.44444444,-0.006001723,0.005082486,0.001157941,-0.027992224,0.018062990815469145,0.001463365,-35.01180325,31.478927345275878,-29.80252542,9.964616581074242,-0.386780615,0.39922677512163096,Drive
106,-0.020941595,-0.030915863,-0.014374148,28.072321376800538,5.1763379096984865,-2.59310993,-0.164868019,-0.015646425,-0.022200419,0.9859389778479789,-0.038212178,0.038623706265849975,0.3321120394665061,9.914364453658317,-0.415137303,0.3654571969821615,0.37704241275787354,0.18439088761806488,1.3965373039245605,9.973999977111816,12.662976264953613,344.9977111816406,161.5,-86.9122513,40.3876049,-30,-0.004044639,-0.006458375,-0.00162942,-0.026035141,0.006522129,-0.001323997,-35.04742737,30.97531150817871,-29.65319746,9.914364453658317,-0.415137303,0.3654571969821615,Drive
107,0.019786223624516458,-0.107710353,-0.042226438,28.187123355865477,5.792925915718079,-2.34593794,-0.161056044,-0.013435823,-0.028559191,0.9864291820711303,-0.035747245,0.052023996,0.3246085704530327,9.956340474989808,-0.625476291,0.31312000863615747,0.4160839021205902,0.2280350923538208,1.4065290689468384,9.968999862670898,12.286069869995117,345.02423095703125,161.5,-86.9122878,40.3877155,-25.375,-2.61E-04,0.005260403,0.004194386,-0.022251446,0.018240907497351393,0.004499809,-34.93323544,31.59238742828369,-29.40602551,9.956340474989808,-0.625476291,0.31312000863615747,Drive
108,-0.029802304,-0.043334133,-0.046331799,28.88484146118164,5.269667878,-1.324187974,-0.147001508,-0.005199257,-0.034466932,0.9885078790118393,-0.020444159,0.066645157,0.2959316850287243,9.891506085029015,-0.70708772,0.1563876403354068,0.3926187753677368,0.2140093445777893,1.4165921211242676,9.975000381469727,11.676133155822754,345.0363464355469,161.5,-86.9123233,40.3878211,-28.66666667,0.007923223,0.00330332,-0.004238865,-0.014067279,0.016283823998342044,-0.003933441,-34.23539547,31.06925136566162,-28.38415333,9.891506085029015,-0.70708772,0.1563876403354068,Drive
109,-0.014550691,-0.177443725,0.011882684546188243,29.78080940246582,5.611145887374878,-1.063107971,-0.136140159,-0.002524663,-0.044396298,0.9896691904484647,-0.017128133,0.087305164,0.274163297,9.857987903854221,-1.046337204,0.18259501770518502,0.39089545607566833,0.2080865204334259,1.426511526107788,9.972000122070312,10.972003936767578,344.0627441,161.5,-86.912358,40.3879197,-31.25,0.00800625,-0.004536875,-0.004476087,-0.013984251,0.008443629,-0.004170663,-33.33930557,31.411339435577393,-28.12331758,9.857987903854221,-1.046337204,0.18259501770518502,Drive
110,0.005270958,-0.201376645,0.015041898,29.541689529418946,5.161697888374329,-1.105319979,-0.128436205,-0.001221688,-0.068229693,0.9893448080831361,-0.020096472,0.13510677688619466,0.25955036108933605,9.874293392144361,-1.545592095,0.21138729493685285,0.40886616706848145,0.1835756003856659,1.436454176902771,9.965999603271484,9.598497391,346.04486083984375,161.5,-86.9123909,40.3880095,-26.11111111,2.1350001283351657E-4,0.003587986,-0.004986115,-0.021777001,0.016568491,-0.004680691,-33.57818142,30.962013416290283,-28.16528536,9.874293392144361,-1.545592095,0.21138729493685285,Drive
111,0.009697535,-0.038908697,0.009062033,29.863037395477296,5.379101872444153,-0.495319983,-0.124854976,-9.33E-04,-0.07791813,0.9891090225247503,-0.021559582,0.15452039762608055,0.2528007397952589,9.902226161,-1.581972302,0.22372310969089068,0.4297218322753906,0.14422205090522766,1.446440339,9.93999958,8.267632484436035,346.0479431152344,161.5,-86.9124171,40.3880884,-33.625,-7.71E-04,2.7873613464745505E-4,-7.75E-04,-0.022761473,0.013259240544798956,-4.70E-04,-33.25658928,31.179295349121094,-27.5550416,9.902226161,-1.581972302,0.22372310969089068,Drive
112,0.008813555,2.579368077791654E-4,0.008547559,30.152909450531006,5.744735894203186,-0.213377996,-0.123282449,-0.001359044,-0.080118041,0.9891303508327558,-0.022731178,0.15882539964066103,0.2498054068822127,9.902304528986367,-1.583104818,0.2335964056654173,0.44604095816612244,0.22472205758094788,1.4564549922943115,9.93999958,7.052323341369629,347.1252136230469,161.5,-86.9124406,40.3881558,-35.44444444,-0.001938265,-0.002408148,-0.003841289,-0.023928767,0.010572356570964284,-0.003535866,-32.96720547,31.54383138656616,-27.27334354,9.902304528986367,-1.583104818,0.2335964056654173,Drive
113,-0.00461708,0.14302893055295482,0.012129289,29.98296345,5.762669925689697,-0.527161991,-0.128442234,-0.004473953,-0.076340364,0.9887505468812962,-0.028761918,0.1503796790120671,0.26051908673591984,9.894112568,-1.357534822,0.2969626471110918,0.48260030150413513,0.1835756003856659,1.466481328010559,9.939000129699707,5.939797878265381,347.0957336425781,161.5,-86.91246,40.3882123,-38.625,-0.004507222,-0.001998597,-1.82E-04,-0.026497724,0.010981907006760029,1.230590820800766E-4,-33.13666332,31.56371742248535,-27.58749348,9.894112568,-1.357534822,0.2969626471110918,Drive
114,0.024808708,-0.06805468,-0.020012093,30.180359363555908,5.419117856025696,-0.690031978,-0.131504681,-0.005484495,-0.069269423,0.988871427,-0.029330341,0.1359715606402425,0.2664122448384183,9.9305189,-1.423932749,0.2706299834199209,0.5343649387359619,0.10000000149011612,1.4764811992645264,9.937999725341797,4.864823341369629,347.0295104980469,161.5,-86.9124769,40.3882592,-36.44444444,-0.001091222,-4.09E-04,-0.002352948,-0.023081724,0.012571296068044037,-0.002047524,-32.93963341,31.219677410125733,-27.74999746,9.9305189,-1.423932749,0.2706299834199209,Drive
115,-0.01223753,-0.020112673,-0.006487216,30.11264928817749,5.465355873,-0.884621975,-0.123674966,-0.003284061,-0.078396887,0.9892124689898445,-0.026200418,0.15490870365818726,0.2507888687756455,9.901720843,-1.568840807,0.2533633284343099,0.7250546813011169,0.092195444,1.486551046,9.937999725341797,3.526118516921997,347.0425720214844,161.5,-86.9124905,40.3882963,-36.88888889,0.001375889,3.380416666419761E-4,0.002130552,-0.020614612,0.013318546,0.002435976,-33.0085635,31.26530544281006,-27.9448315,9.901720843,-1.568840807,0.2533633284343099,Drive
116,-0.002910697,0.092544526,0.010230069,30.246117401123048,5.361045851707458,-0.754325979,-0.127417734,-0.004507058,-0.070125931,0.9893529513507213,-0.027043887,0.1380482666122103,0.2580364051374417,9.915316370817331,-1.285034917,0.27862003810990316,0.7055052518844604,0.41231057047843933,1.4963964223861694,9.939000129699707,2.689807176589966,347.90643310546875,161.5,-86.9125002,40.3883215,-37.625,0.001328445,6.108472702427975E-4,0.002628719,-0.020662056,0.013591351701868969,0.002934143,-32.87399723,31.16062936782837,-27.81429153,9.915316370817331,-1.285034917,0.27862003810990316,Drive
117,-0.013935098,0.017842705967356858,-0.003729518,30.162669506072998,5.494879908561707,-0.92329598,-0.129241152,-0.005380811,-0.066687782,0.9893529970669052,-0.028128809,0.13093852823220412,0.2616375143666869,9.870846461,-1.284536307,0.2742337371105129,1.3659603595733643,0.5437830686569214,1.0187780857086182,9.942999839782715,1.8249801397323608,348.9618225097656,158.89999389648438,-86.9125068,40.3883392,-37,0.001103083,-0.001097153,4.106909748691234E-4,-0.020887418,0.011883351513867275,7.16114639376914E-4,-32.95707928,31.296415405273436,-27.98326149,9.870846461,-1.284536307,0.2742337371105129,Drive
118,0.013434308246501441,0.088221875,0.011358765288464074,30.261367359161376,5.349699873924255,-0.841311983,-0.133135312,-0.006700165,-0.060174655,0.9892409866295971,-0.029476709,0.11754114766722744,0.2692913308884334,9.910391863109997,-1.079816396,0.3036271233871145,7.709760665893555,0.28600698709487915,1.0285509824752808,9.949999809265137,0.968303382,347.8242492675781,158.89999389648438,-86.9125105,40.3883486,-43.125,0.001553806,-1.25E-04,0.001193524,-0.020436695,0.012855962700960994,0.001498948,-32.85789345,31.148673362731934,-27.90152149,9.910391863109997,-1.079816396,0.3036271233871145,Drive
119,0.008807655,0.1465300755593383,0.015117673763951052,30.24245735168457,5.215377898216247,-0.935373971,-0.136960891,-0.007858197,-0.053984063,0.989059072,-0.030478796,0.10482737595595203,0.276797025,9.929217903359422,-0.888660648,0.31770528505728085,45,0.22671568393707275,1.038610577583313,9.956999778747559,0.9672604203224182,347.8129883,158.89999389648438,-86.912512,40.3883523,-52.66666667,0.001506361,8.895833415964853E-5,0.001074913,-0.02048414,0.013069462808735163,0.001380337,-32.87777943,31.014595375061035,-27.99558352,9.929217903359422,-0.888660648,0.31770528505728085,Drive
120,0.005116833,0.2666065148936892,0.019921425,30.300895385742187,5.101307873725891,-0.926589989,-0.156864331,-0.012651403,-0.029119704,0.9870758727916236,-0.03410296,0.053542145102926826,0.31610643834743685,9.939915925553702,-0.267537317,0.35977714675144085,45,0.14866068959236145,1.0486353635787964,9.958999633789062,0.9542133808135986,347.77520751953125,158.89999389648438,-86.9125128,40.3883543,-60.125,0.001530083,5.337500320837914E-5,9.918854836356438E-4,-0.020460418,0.013033879468741925,0.001297309,-32.81909744,30.901745433807374,-27.9870435,9.939915925553702,-0.267537317,0.35977714675144085,Drive
121,-0.010757281,0.038255488,0.005439554,30.33041944503784,5.1210718965530395,-0.896943979,-0.166183962,-0.014783442,-0.019113933,0.9857976505389581,-0.035524469,0.032777231,0.3345980432171088,9.918354432559708,-0.287527842,0.357918643,45,0.10000000149011612,1.0586011409759521,9.961000442504883,0.919525683,347.6835938,158.89999389648438,-86.9125134,40.3883549,-66.22222222,0.001374406,3.4066481748595834E-4,5.403648985800549E-4,-0.020616095,0.013321169,8.457884967076377E-4,-32.78884136,30.921021480560302,-27.95690954,9.918354432559708,-0.287527842,0.357918643,Drive
122,-0.017467175,0.002414729,0.0023173,30.389101295471193,5.129489874839782,-0.889867973,-0.167879947,-0.015274326,-0.017626861,0.985531455,-0.036048616,0.029619449243238827,0.3379840364733946,9.882633412925943,-0.291204194,0.35938221389807545,45,0.086023256,1.0685820579528809,9.956999778747559,0.8631047606468201,347.5982971191406,158.89999389648438,-86.9125135,40.3883549,-65.5,0.001447056,-5.93E-06,5.886076844423937E-4,-0.020543445,0.012974573859890688,8.940312935681381E-4,-32.73076923,30.92992742538452,-27.94983345,9.882633412925943,-0.291204194,0.35938221389807545,Drive
123,-0.003069155,-0.001999041,7.284526686066562E-4,30.43448543548584,5.044577898979187,-0.871567991,-0.168091105,-0.015390178,-0.017484317,0.985496227,-0.036235309,0.029291736866229948,0.3384091492416789,9.879517536718868,-0.29188371,0.35901051325705446,45,0.10000000149011612,1.0786094665527344,9.946999549865723,0.78926152,347.5284423828125,158.89999389648438,-86.9125135,40.3883545,-65.25,0.001411472,-6.52E-05,4.937187853287363E-4,-0.020579029,0.012915268287207316,7.991424034964474E-4,-32.68514145,30.845381488800047,-27.93189939,9.879517536718868,-0.29188371,0.35901051325705446,Drive
124,0.009750616,-5.57E-04,0.001665804,30.338349418640135,5.070319900512695,-0.916463978,-0.168142287,-0.015444331,-0.017379563,0.9854884888361959,-0.036308217,0.029065107,0.3385096432514561,9.895979797955855,-0.28830609,0.36079932329724135,45,0.2080865204334259,1.0379459857940674,9.946999549865723,0.7057636380195618,347.4754638671875,158.89999389648438,-86.9125134,40.3883538,-64.22222222,0.001281,3.380416869864012E-4,4.8185767406977496E-4,-0.020709501,0.013318546098268148,7.872812911072402E-4,-32.78213112,30.870757389068604,-27.97630753,9.895979797955855,-0.28830609,0.36079932329724135,Drive
125,0.018896686220632015,-1.47E-04,0.002317612,30.527571334838868,5.015663890838623,-0.800563983,-0.167917571,-0.015378071,-0.017110222,0.985532559,-0.036079941,0.028564744457168487,0.33803931891339495,9.937334941,-0.284009643,0.3603268787264824,45,0.2080865204334259,1.0479674339294434,9.951999664,0.6190865635871887,347.4366760253906,158.89999389648438,-86.9125132,40.3883531,-70.125,0.001209833,3.73625022458654E-4,5.767465726183095E-4,-0.020780667,0.013354129,8.821701817440538E-4,-32.59242149,30.81622341156006,-27.8605295,9.937334941,-0.284009643,0.3603268787264824,Drive
126,-0.001999818,-0.004002624,0.001443208,30.32822338104248,5.02151988,-0.972461974,-0.167911223,-0.015390395,-0.016986267,0.9855355973382598,-0.0360622,0.028316481,0.33802104632831315,9.933161486,-0.28565482,0.3602417704549808,45,0.2080865204334259,1.0578994750976562,9.956000328063965,0.5547164678573608,347.4159240722656,158.89999389648438,-86.9125126,40.3883512,-64.55555556,0.00138775,1.1268056571953795E-4,5.767465760090469E-4,-0.020496001,0.013105046094476599,9.296146267798992E-4,-32.79176945,30.821713428497315,-28.03242758,9.933161486,-0.28565482,0.3602417704549808,Drive
127,-0.017280523,-0.002667453,-3.92E-06,30.46352144241333,4.940389947891235,-0.885719988,-0.167697838,-0.015393925,-0.017229515,0.985567647,-0.036145065,0.028802627914594214,0.33759942361452044,9.894190954930574,-0.288608098,0.3581974179420656,45,0.2080865204334259,1.0680313110351562,9.968000411987305,0.21417038142681122,347.1200256347656,158.89999389648438,-86.9125121,40.3883492,-64.66666667,1.3343765495290744E-5,6.671876587805528E-5,-5.78E-05,-0.020602751,0.013199935034279105,8.584479597912541E-4,-32.65573925,30.739851455688477,-27.94568537,9.894190954930574,-0.288608098,0.3581974179420656,Drive
128,-0.005750656,-7.34E-04,0.0014055,30.391785354614257,4.975891919136047,-0.937691978,-0.167594054,-0.015386108,-0.01742902,0.9855819199849101,-0.03619387,0.029202359846060715,0.33739788786878866,9.887874927335572,-0.289978745,0.3594286765867067,0,0.2080865204334259,1.0778833627700806,9.968999862670898,0.020784931257367134,0,158.89999389648438,-86.9125117,40.3883479,-64.125,-1.29E-04,1.023021002200622E-4,-2.22E-05,-0.020745084,0.013235518365230375,8.940312935681381E-4,-32.72893921,30.776573390960692,-27.99765747,9.887874927335572,-0.289978745,0.3594286765867067,Drive
129,0.007998512,4.6410382940219E-4,4.024915397167206E-4,30.407279510498046,4.978209929466248,-0.797025979,-0.167476935,-0.015408006,-0.017418028,0.9856016779175172,-0.036229892,0.029177639,0.3371603491787727,9.899432524894047,-0.288538404,0.35912666939994664,0,0.2080865204334259,1.0376830101013184,9.975000381469727,0.02379664,0,158.89999389648438,-86.9125115,40.3883473,-63.55555556,-2.35E-05,1.007440285040782E-11,3.524120480646021E-5,-0.020639589,0.013133216264227835,9.515120635534493E-4,-32.71332348,30.77852542877197,-27.85662558,9.899432524894047,-0.288538404,0.35912666939994664,Drive
130,0.019537528,0.001208276,2.569434712234053E-4,30.516713352203368,5.003219919204712,-0.944157977,-0.167415674,-0.015404088,-0.017220201,0.9856156232287583,-0.036153737,0.028791198995217537,0.33702676128415227,9.942689219724786,-0.284888188,0.3591963637222364,0,0.2080865204334259,1.0475537776947021,9.975000381469727,0.020255694165825844,0,158.89999389648438,-86.9125115,40.3883472,-61.75,-8.15E-05,1.3788543851792957E-4,2.5204880144989606E-5,-0.02069764,0.013271101687139677,9.414757380388605E-4,-32.60315746,30.802803440093996,-28.00448959,9.942689219724786,-0.284888188,0.3591963637222364,Drive
131,-4.17E-04,3.575963302723412E-4,8.737621376815352E-4,30.471329383850097,5.0531179094314576,-0.873641987,-0.16744887,-0.01542035,-0.017074082,0.9856122714801899,-0.036137577,0.028496461,0.3370877926789441,9.940970115291263,-0.283334594,0.36031146622398524,0,0.2163330763578415,1.0575735569000244,9.975999832,0.010482090525329113,0,158.89999389648438,-86.9125115,40.3883472,-63.44444444,8.451043870028796E-5,3.11354326662942E-5,-2.22E-05,-0.020531584,0.013164351630992102,8.940312907425235E-4,-32.64902916,30.85245731,-27.93348547,9.940970115291263,-0.283334594,0.36031146622398524,Drive
132,-0.0180836,-0.003117559,-6.66E-04,30.47389150619507,5.035427904129028,-0.861807987,-0.16737348,-0.015469715,-0.017234015,0.9856215136722454,-0.036286592,0.028797967974277375,0.3369435994949156,9.901723722809727,-0.28918888,0.3594751401433667,0,0.2080865204334259,1.0675815343856812,9.975999832,0.004162661,0,158.89999389648438,-86.9125115,40.3883472,-63.625,8.451044209102548E-5,7.413209018125696E-6,1.482656496821098E-6,-0.020531584,0.013140629,9.177535149558149E-4,-32.6461013,30.835621337890625,-27.9218956,9.901723722809727,-0.28918888,0.3594751401433667,Drive
133,-0.006962647,-2.23E-04,1.7441273892967446E-4,30.32334342956543,5.042015895843506,-0.958187991,-0.167126804,-0.015460789,-0.017448275,0.9856597480264683,-0.03633382,0.029232456,0.33645285101770195,9.889620188370492,-0.289932283,0.3599397663063216,0,0.19416487216949463,1.0775293111801147,9.975000381469727,0.003771442,0,158.89999389648438,-86.9125116,40.3883472,-64,-8.15E-05,-2.82E-05,-4.60E-05,-0.02069764,0.013105046067350698,8.703090704850925E-4,-32.79640556,30.84123348236084,-28.0180315,9.889620188370492,-0.289932283,0.3599397663063216,Drive
134,0.003905759,8.231632917830087E-5,-9.79E-04,30.44119541168213,5.083495883941651,-0.866443987,-0.166941548,-0.015437808,-0.017471935,0.985691082,-0.036290939,0.029293619873888285,0.3360774566247625,9.896524658569923,-0.289942808,0.35848624574450344,0,0.2080865204334259,1.0362516641616821,9.975000381469727,0.002636482,0,158.89999389648438,-86.9125116,40.3883472,-65.875,-1.53E-04,-4.45E-06,-4.60E-05,-0.020768806,0.013128768,8.703090704850925E-4,-32.6791634,30.883445472717284,-27.92653147,9.896524658569923,-0.289942808,0.35848624574450344,Drive
135,0.020228034,0.002302288,2.919154838450904E-4,30.36860533,5.108505892753601,-0.960749978,-0.166830277,-0.01540689,-0.017259413,0.9857141485492003,-0.036155321,0.028889036221990308,0.3358409720138439,9.939433912629063,-0.284632643,0.35859234992740224,0,0.2080865204334259,1.0461145639419556,9.975000381469727,0.006424994,0,158.89999389648438,-86.9125114,40.3883472,-65.22222222,-8.15E-05,4.299654166476385E-5,-9.34E-05,-0.02069764,0.013176212756379136,8.228646226236325E-4,-32.75224133,30.908455448150633,-28.0207155,9.939433912629063,-0.284632643,0.35859234992740224,Drive
136,0.001991457,6.267792970231435E-4,9.88571678550498E-4,30.453273544311525,5.024203910827636,-0.801539975,-0.16661043,-0.01534753,-0.017087391,0.9857552578148333,-0.035974138,0.028577737257029247,0.3353853882516472,9.943275738688348,-0.283892145,0.35901051238902565,0,0.2080865204334259,1.0559614896774292,9.975000381469727,0.001150486,0,158.89999389648438,-86.9125115,40.3883472,-65,-4.60E-05,1.0230210361079973E-4,-6.97E-05,-0.020662056,0.013235518310978574,8.465868462718011E-4,-32.66720734,30.82354341506958,-27.86138355,9.943275738688348,-0.283892145,0.35901051238902565,Drive
137,-0.018766709,-0.002103803,-6.83E-04,30.31455934524536,5.052385921478272,-0.932445992,-0.166585451,-0.015420143,-0.017244322,0.9857556050263562,-0.036169229,0.028863835736241156,0.33534395984075605,9.902827142511757,-0.289113379,0.35873173857198176,0,0.19416487216949463,1.0660353899002075,9.972999572753906,0.006429236,0,158.89999389648438,-86.9125116,40.3883471,-63.5,-2.22E-05,6.671877152928449E-5,-1.05E-04,-0.020638334,0.013199935016195171,8.110035102344254E-4,-32.80579933,30.852335319519042,-27.99277756,9.902827142511757,-0.289113379,0.35873173857198176,Drive
138,-0.006064956,-6.07E-04,-1.29E-04,30.471207370758055,5.030425939559937,-0.902433976,-0.166369878,-0.015429462,-0.017399983,0.9857891373909436,-0.036233402,0.029175567,0.33491412464242715,9.892817450958548,-0.289746431,0.3583832684072476,0,0.2080865204334259,1.0759925842285156,9.973999977111816,0.003403787,0,158.89999389648438,-86.9125116,40.3883472,-65,-1.17E-05,-4.70E-05,-2.35E-05,-0.020627842,0.013086227977720018,8.927767541116247E-4,-32.64780949,30.83049741744995,-27.96239956,9.892817450958548,-0.289746431,0.3583832684072476,Drive
139,0.004309367,0.001126395,9.168181025866166E-4,30.49951156616211,5.071783900260925,-0.909265983,-0.16621789,-0.015408599,-0.017439277,0.9858143931453668,-0.036200879,0.029265570210166347,0.3346070519928793,9.900097541438724,-0.288883969,0.3593357509201013,0,0.2280350923538208,1.0364493131637573,9.975000381469727,0.002984938,0,158.89999389648438,-86.9125115,40.3883472,-63,-1.41E-04,2.446354449346879E-4,-1.65E-04,-0.020756945,0.013377852,7.516979562001104E-4,-32.62072536,30.8717334,-27.96910946,9.900097541438724,-0.288883969,0.3593357509201013,Drive
140,0.021451524160440685,0.002935288,0.001473602,30.914921398162843,4.976745898723602,-1.050175973,-0.166285452,-0.015354499,-0.017277183,0.9858066711610961,-0.03604192,0.028961492557693452,0.334735096,9.944248598,-0.284841725,0.35928928909949887,0,0.2080865204334259,1.0463448762893677,9.975000381469727,0.002395714,0,158.89999389648438,-86.9125115,40.3883472,-58.11111111,-6.97E-05,1.497465548629972E-4,-2.24E-04,-0.020685779,0.013282962749232945,6.923923970796891E-4,-32.20531549,30.77681738,-28.11014147,9.944248598,-0.284841725,0.35928928909949887,Drive
141,0.001849378,6.945052193206491E-4,4.6940220212473454E-4,30.38666135787964,5.0414058876037595,-0.919147981,-0.166444942,-0.01536213,-0.017103815,0.9857826979414931,-0.03600364,0.028611290494649156,0.33505083027395227,9.947605558969443,-0.284260941,0.35873173857198176,0,0.20000000298023224,1.0563303232192993,9.975000381469727,0.001228962,0,158.89999389648438,-86.9125115,40.3883472,-38.5,-8.15E-05,1.2602432725896824E-4,-1.05E-04,-0.02069764,0.013259240616004444,8.110035119297942E-4,-32.73394119,30.841599540710448,-27.97911346,9.947605558969443,-0.284260941,0.35873173857198176,Drive
142,-0.018897482,-0.001825138,0.001069324,30.36543342590332,5.056045918464661,-0.97917197,-0.166599585,-0.015457395,-0.017262031,0.9857523198266631,-0.036249076,0.028885786,0.33537448986062723,9.908245919977578,-0.288979797,0.36110132874794376,0,0.2080865204334259,1.0663262605667114,9.975000381469727,0.005941014,0,158.89999389648438,-86.9125116,40.3883471,-24.88888889,2.5204880144989606E-5,7.85798793975083E-5,-1.05E-04,-0.02059089,0.013211796,8.1100351306004E-4,-32.7540715,30.85611749649048,-28.0390155,9.908245919977578,-0.288979797,0.36110132874794376,Drive
143,-0.008215793,-6.73E-04,-0.001004756,30.489141311645508,5.009075894355774,-0.884255978,-0.166544236,-0.015458039,-0.017412948,0.9857590123287683,-0.036299286,0.029185177,0.33526924136772895,9.894548810445345,-0.290382833,0.35896941131124127,0,0.2080865204334259,1.0763366222381592,9.975000381469727,0.001980333,0,158.89999389648438,-86.9125115,40.3883472,-53.88888889,-1.29E-04,-7.56E-05,-4.60E-05,-0.020745084,0.013057601638138294,8.703090682246008E-4,-32.63097332,30.808537483215332,-27.94409937,9.894548810445345,-0.290382833,0.35896941131124127,Drive
144,0.004424123,0.001147518,4.4494404376131815E-4,30.345303325653077,5.066415891647339,-1.016503978,-0.166396659,-0.015449606,-0.017470997,0.9857830428382726,-0.036297702,0.029307886379436383,0.3349723248805815,9.899966813985584,-0.288814278,0.35968422050614957,0,0.20000000298023224,1.035695195198059,9.973999977111816,0.007019343,0,158.6999969482422,-86.9125115,40.3883473,-59.75,-9.34E-05,5.485765687958563E-5,-1.76E-04,-0.020709501,0.013188073854640272,7.398368443760261E-4,-32.77420143,30.867097473144533,-28.07622553,9.899966813985584,-0.288814278,0.35968422050614957,Drive
145,0.020132129632153557,0.002573384,-8.13E-04,30.474745445251465,5.003463916778564,-0.876447993,-0.166470149,-0.015434006,-0.01723187,0.985775081,-0.036189055,0.02883888,0.33510987272540343,9.943197417027742,-0.284205769,0.3585458881067998,0,0.2080865204334259,1.0455780029296875,9.972999572753906,0.010157894343137741,0,158.6999969482422,-86.9125116,40.3883474,-58,-9.34E-05,7.413211843740304E-6,2.520488127523545E-5,-0.020709501,0.013140629443511801,9.414757374737376E-4,-32.64512543,30.802925300598144,-27.93653538,9.943197417027742,-0.284205769,0.3585458881067998,Drive
146,0.005260838,0.023497564483036117,0.00202178,29.155071640014647,5.627127914428711,-2.082905972,-0.169136766,-0.015707487,-0.015647599,0.9853401780128479,-0.036262866,0.025525429,0.3404555155814273,9.952173381,-0.230448567,0.3628407722266698,0,0.2080865204334259,1.055524468421936,9.972999572753906,0.00162246,0,158.6999969482422,-86.9125115,40.3883473,-48.5,-5.78E-05,-1.71E-04,1.4381601081853642E-4,-0.020673917,0.012962712779713488,0.001060087,-33.96504345,31.426833305358887,-29.14262743,9.952173381,-0.230448567,0.3628407722266698,Drive
147,-0.012957655,0.29370006689658534,0.019512447,28.49883348464966,6.3430238676071165,-2.368019942,-0.18996193,-0.018658848,-0.004982619,0.9814270562850512,-0.038252646,0.002665786,0.3824233745153134,9.922855488304952,0.2724275030376552,0.39994113863382524,3.4773526191711426,0.2080865204334259,1.0655999183654785,9.973999977111816,0.2799947261810303,346.0006103515625,158.6999969482422,-86.9125099,40.3883517,-38.55555556,7.048240233696281E-5,-6.81E-04,0.001339165,-0.020545612,0.012451887,0.002255436,-34.62103745,32.14321735,-29.42798546,9.922855488304952,0.2724275030376552,0.39994113863382524,Drive
148,-0.003745449,0.4932270547718678,0.033375230807702515,28.268497505187987,6.6001998853683475,-2.398397948,-0.292242212,-0.033834385,0.031653445,0.9540973953830386,-0.045120057,-0.080519595,0.5926565663907134,9.912761530829865,1.2947464591091118,0.48107641197524026,2.026608467102051,0.12727922201156616,1.075621247291565,9.967000007629395,1.7696080207824707,345.9978332519531,158.6999969482422,-86.9125116,40.3883599,-47.875,-2.36E-04,-8.94E-04,0.003298872,-0.020851834,0.012239184904192547,0.004215143,-34.85137352,32.39941740036011,-29.4582415,9.912761530829865,1.2947464591091118,0.48107641197524026,Drive
149,0.014316114407141232,0.25934134525002783,0.023416034804964528,28.238973484039306,6.276167898178101,-2.51222394,-0.431006885,-0.054739006,0.055523204391153116,0.8980232239926903,-0.050542133,-0.147738161,0.8912400059329654,9.927948886908373,1.7369075596911236,0.5249022368377853,1.4668301343917847,0.12041594833135605,1.033858060836792,9.961999893188477,3.7095179557800293,345.9993896484375,158.89999389648438,-86.9125199,40.3883835,-41,-7.10E-04,-7.40E-04,0.004283344,-0.021326279,0.012393379340386831,0.005199615,-34.88187347,32.075629024505616,-29.57267742,9.927948886908373,1.7369075596911236,0.5249022368377853,Drive
150,0.011196497574593256,-0.147732625,-0.010018144,28.232507362365723,5.991297860145568,-2.595671937,-0.468483058,-0.060040095,0.059033829,0.8786756321064477,-0.050526829,-0.16096701,0.9756089738271769,9.945000731829301,1.4673287914794626,0.4922680831649928,1.2836649417877197,0.2163330763578415,1.0438827276229858,9.956000328063965,5.508618354797363,345.9978332519531,158.89999389648438,-86.9125341,40.3884251,-28.75,-8.88E-04,0.003020136,-8.05E-04,-0.021504195,0.016153351802184492,1.1119787983632493E-4,-34.88748516,31.79149133682251,-29.65600346,9.945000731829301,1.4673287914794626,0.4922680831649928,Drive
151,0.005776146,-0.768593301,-0.054964307,28.394157543182374,5.676659903526306,-2.618729935,-0.33007727,-0.03763231,0.037812572,0.9403193755057252,-0.044229898,-0.096654607,0.6730896005931409,9.983684328886179,0.19522786902514502,0.3871771110794865,1.0986628532409668,0.17691805958747864,1.0538614988327026,9.951000213623047,6.248138427734375,345.9677734,158.89999389648438,-86.9125519,40.3884786,-29.11111111,-6.51E-04,0.002486386,9.26649313221134E-4,-0.021266973,0.015619602,0.00184292,-34.72583542,31.476365394592285,-29.67869543,9.983684328886179,0.19522786902514502,0.3871771110794865,Drive
152,-0.024224374,-0.531330002,-0.042678378,29.10370958328247,5.455595922470093,-2.169159958,-0.189205176,-0.014922717,-0.00792891,0.9814060943797954,-0.031679765,0.009845963,0.3810209423592947,9.923299761651789,-0.635918751,0.2707838897719907,1.025635004043579,0.098994948,1.063854694366455,9.949000358581543,5.914910793304443,345.01519775390625,158.89999389648438,-86.9125706,40.3885338,-32.75,7.843160662727738E-4,0.003079441,-0.001493018,-0.019831779,0.016212657356218806,-5.77E-04,-34.01652761,31.256399459838867,-29.22912548,9.923299761651789,-0.635918751,0.2707838897719907,Drive
153,-0.048735119,-0.332908086,-0.029299138,30.25441349029541,4.786669922,-1.502307965,-0.137208826,-0.006270169,-0.044683337,0.9894483054725869,-0.024638,0.086808653,0.2766381156386681,9.866136236098207,-1.201992634,0.21542082770356855,0.9341726303100586,0.15000000596046448,1.0738784074783325,9.942999839782715,5.095820426940918,345.0476074,158.89999389648438,-86.9125878,40.3885838,-29.55555556,2.980104763992131E-4,0.00264058,0.001922983,-0.020318084,0.015773796,0.002839254,-32.86631138,30.58710739135742,-28.56202944,9.866136236098207,-1.201992634,0.21542082770356855,Drive
154,0.047968401,-0.574857358,-0.045270761,30.448637409210207,5.076175914,-1.527195969,-0.103598386,0.001271178,-0.084960648,0.9908370798073926,-0.015020273,0.1694506346022041,0.20956096935619428,9.93375968,-2.274511484,0.099665128,1.0791797637939453,0.1835756003856659,1.0838441848754883,9.944000244140625,3.3496856689453125,346.2610778808594,158.89999389648438,-86.9126008,40.3886228,-36.11111111,-9.00E-04,0.004194386,0.001009677,-0.021516057,0.017327601986923662,0.001925948,-32.67184334,30.87636936187744,-28.58716146,9.93375968,-2.274511484,0.099665128,Drive
155,-0.005575745,0.20568438293864427,0.029941793965193832,30.223181343078615,5.489511880874634,-1.681281964,-0.091669559,0.003769851,-0.101193238,0.9906104641053283,-0.011285257,0.20256210125765753,0.18568984990559737,9.895785229877362,-1.817017757,0.14376972828657159,1.8750358819961548,0.5464430451393127,1.0939010381698608,9.946999549865723,1.941127061843872,349.6239013671875,158.89999389648438,-86.9126078,40.3886444,-42.125,-5.20E-04,-9.18E-04,-0.001232073,-0.021136501,0.012215462626292578,-3.16E-04,-32.89705524,31.28958339691162,-28.7412475,9.895785229877362,-1.817017757,0.14376972828657159,Drive
156,0.018402704825768106,0.39225643701278246,0.023573207955520887,30.457421398162843,5.524891867637634,-1.346757981,-0.109146096,8.542412320830059E-4,-0.069262736,0.9915438466347181,-0.013443455,0.1379934141698938,0.2201892723544286,9.952193676846699,-0.985456711,0.1574384369751782,1.1514071226119995,0.15000000596046448,1.1040815114974976,9.946999549865723,0.4805164635181427,346.0146484,158.89999389648438,-86.9126093,40.3886512,-40.22222222,-5.87E-05,0.002584354,3.054236748049824E-4,-0.02067483,0.01571757,0.001221695,-32.6620834,31.325573387145997,-28.40660154,9.952193676846699,-0.985456711,0.1574384369751782,Drive
157,0.00605061,0.3420789667124887,0.023556282942734874,30.51439540863037,5.696301894187927,-1.481811972,-0.132661347,-0.003116741,-0.042245758,0.9901611666077549,-0.017255494,0.082930747,0.2670689883452017,9.95668027,-0.485388718,0.19538093777825533,45,0.098994948,1.1139010190963745,9.946000099182129,0.48033928871154785,346.0096740722656,158.89999389648438,-86.9126091,40.3886494,-45.25,4.8927107183895644E-5,-1.82E-04,5.115104914932213E-4,-0.020567168,0.012950851654326453,0.001427781,-32.60535351,31.496617317199707,-28.54165543,9.95668027,-0.485388718,0.19538093777825533,Drive
158,-0.001067097,0.14229700302036064,0.009813097,30.439365406036377,5.815983887,-1.444723962,-0.161258465,-0.007575413,-0.017666006,0.9867079732487503,-0.020627766,0.032423747,0.32432946881044256,9.954377406,-0.180594224,0.2153017678596441,45,0.22022715210914612,1.1238741874694824,9.946000099182129,0.24124003946781158,343.6951599121094,158.89999389648438,-86.9126092,40.3886486,-56.55555556,8.451043757004212E-5,9.044100365429683E-5,7.264933591817045E-5,-0.020531584,0.013223657,9.889201796839683E-4,-32.68099319,31.615201320648193,-28.50444544,9.954377406,-0.180594224,0.2153017678596441,Drive
159,-0.001776806,0.025195135798269104,0.003104745,30.72179536819458,5.352871909,-1.717515962,-0.169855376,-0.00879311,-0.012037198,0.9853553488416579,-0.021422676,0.020736071,0.34162646387387247,9.951517068066643,-0.181166294,0.21646333203732387,0,0.21931712329387665,1.1339911222457886,9.947999954223633,0.031222913414239883,0,158.89999389648438,-86.9126087,40.3886472,-62.75,-1.04E-05,1.6160766612195854E-4,-8.15E-05,-0.020626473,0.013294824,8.347257350128397E-4,-32.39807533,31.153065452575685,-28.77760349,9.951517068066643,-0.181166294,0.21646333203732387,Drive
160,-0.011361955,0.010970600021695628,0.001457954,29.466781463623047,6.030947890281677,-2.117797961,-0.171824903,-0.009066714,-0.010858264,0.9850254029903597,-0.021597898,0.018276528880289456,0.3455960935759313,9.935269970160265,-0.170917136,0.2161478118505329,0,0.1140175461769104,1.1438649892807007,9.946999549865723,0.027305064722895622,0,158.89999389648438,-86.9126085,40.3886467,-56.66666667,-4.60E-05,1.141632182604986E-4,-1.04E-05,-0.020662056,0.013247379409239708,9.058923991758701E-4,-33.65345539,31.83028741836548,-29.17788542,9.935269970160265,-0.170917136,0.2161478118505329,Drive
161,-0.016749326,-0.010226291,-0.001178285,28.538239517211913,6.636189889907837,-2.772083957,-0.173082833,-0.009028944,-0.011203622,0.984802012,-0.021667244,0.01894232,0.34815944601031185,9.899185726943525,-0.198043825,0.21397758499511238,0,0.10000000149011612,1.1538825035095215,9.942000389099121,0.025073232129216194,0,158.89999389648438,-86.9126084,40.3886465,-64.44444444,-6.97E-05,1.2602432782409117E-4,1.2009378377963038E-4,-0.020685779,0.013259240552710676,0.001036365,-34.58199741,32.43662719726562,-29.8325374,9.899185726943525,-0.198043825,0.21397758499511238,Drive
162,-7.60E-04,0.1917329530403452,0.014476396215772167,28.44771553039551,7.005361828804016,-2.868219945,-0.184640082,-0.010468904,-0.005508147,0.9826732682950289,-0.022512874,0.006952324,0.37153457351101254,9.898456851255547,0.12882039535935352,0.23867534638102195,1.2683277130126953,0.10816653817892075,1.1638456583023071,9.942000389099121,0.16984698176383972,345.9880065917969,158.89999389648438,-86.9126088,40.3886478,-43.125,-6.97E-05,-2.77E-04,0.001021538,-0.020685779,0.012855962759733778,0.001961531,-34.67239941,32.805433387756345,-29.92794153,9.898456851255547,0.12882039535935352,0.23867534638102195,Drive
163,0.011091982,0.063434104,0.0081286,28.548853359222413,7.095885858535767,-2.743779955,-0.219029666,-0.015439639,0.009797168,0.9755399290797779,-0.025835248,-0.025882979,0.44138313236745813,9.917616797882376,0.31768495712465455,0.2647147180458296,1.2870852947235107,0.12041594833135605,1.037765622138977,9.942000389099121,0.6604322791099548,345.8105773925781,159.39999389648438,-86.9126088,40.3886506,-36.66666667,-6.86E-04,-0.001071948,-4.60E-04,-0.021302556,0.012061268,6.0936459509692E-4,-34.57126133,32.89534740447998,-29.80423351,9.917616797882376,0.31768495712465455,0.2647147180458296,Drive
164,0.015475837929734906,-0.169716815,-0.011674264,28.29911943435669,7.178235864639282,-2.795141954,-0.215595394,-0.015139231,0.00628619,0.9762851862074102,-0.026766131,-0.018810871,0.43443393099655225,9.955841009,0.012181906,0.25398186230760755,2.2610652446746826,0.27586227655410767,1.0476593971252441,9.942999839782715,0.9678760170936584,345.57061767578125,159.39999389648438,-86.9126106,40.3886583,-35,-0.004410851,-7.52E-04,2.876320340697771E-4,-0.025026946,0.012381518282249425,0.001356615,-34.82050755,32.978917350769045,-29.85510742,9.955841009,0.012181906,0.25398186230760755,Drive
165,-0.002608859,-0.128112657,-0.010675886,28.934007453918458,6.8444438695907595,-2.084369957,-0.182246603,-0.010014645,-0.01046641,0.983118939,-0.023471267,0.016922500868811488,0.36678497292674506,9.944408306,-0.296300556,0.2217978161660213,2.020291805267334,0.39597979187965393,1.0576436519622803,9.944000244140625,0.9025418162345886,346.1723327636719,159.39999389648438,-86.9126132,40.3886673,-46.22222222,-0.004111472,0.001292177,3.406648891261564E-4,-0.024727567,0.014425393126797505,0.001409648,-34.18622921,32.64463758468628,-29.14445749,9.944408306,-0.296300556,0.2217978161660213,Drive
166,-0.01946528,-0.137379968,-0.00992088,29.893171367645262,6.153191871643067,-1.028825994,-0.163073205,-0.007007502,-0.020057992,0.9863605366169828,-0.020341037,0.037287583,0.3280674661826162,9.904470823343518,-0.507632679,0.19207628765731183,1.3476158380508423,0.41012194752693176,1.0676199197769165,9.946000099182129,0.6580098867416382,347.8706970214844,159.39999389648438,-86.9126154,40.3886751,-47,-0.001564184,0.001181663,0.001722827,-0.022180279,0.014314879491491225,0.002791809,-33.2268214,31.95326332092285,-28.08915743,9.904470823343518,-0.507632679,0.19207628765731183,Drive
167,-0.005562866,0.03795046,0.003118927,29.985769424438477,5.871981887817383,-0.828867979,-0.154469754,-0.005893868,-0.024357125,0.9876769329737691,-0.019184055,0.046309617,0.31072452751178187,9.898468397196057,-0.421189056,0.19324075553602385,1.5065264701843262,0.1063014566898346,1.0776501893997192,9.947999954223633,0.3343009352684021,347.15899658203125,159.39999389648438,-86.9126164,40.3886798,-58.22222222,-6.15E-04,4.462743515953494E-4,5.0409727512849766E-5,-0.02123139,0.013579490522230134,0.001119392,-33.13458942,31.67180938720703,-27.88895552,9.898468397196057,-0.421189056,0.19324075553602385,Drive
168,0.007880516,0.019464363172216323,0.00160048,29.884143314361573,5.817325907,-0.896089982,-0.157734882,-0.006648903,-0.02068137,0.9872423555087118,-0.019668311,0.038747199783915456,0.317249317,9.910615513625654,-0.364597638,0.19648442518653222,45,0.15000000596046448,1.0374336242675781,9.946999549865723,0.3342645466327667,347.1577148,158.89999389648438,-86.9126167,40.3886815,-63.375,-2.12E-04,4.299654901136183E-5,6.227083933693402E-5,-0.020828112,0.013176213,0.001131254,-33.23560535,31.616543292999268,-27.95593342,9.910615513625654,-0.364597638,0.19648442518653222,Drive
169,0.020336447,0.10624620672857878,0.008456463,29.944045486450197,5.832941866,-1.042733987,-0.163963191,-0.007779784,-0.015349429,0.9863012490920651,-0.020361257,0.027729405,0.3297483362619159,9.954012797429012,-0.169033363,0.21052237686056358,45,0.17691805958747864,1.047461748123169,9.946999549865723,0.33103635907173157,347.2086486816406,158.89999389648438,-86.9126168,40.3886827,-65.44444444,-2.22E-05,4.29965427950097E-5,-8.90E-06,-0.020638334,0.013176213,0.001060087,-33.17545937,31.632403411865234,-28.10269945,9.954012797429012,-0.169033363,0.21052237686056358,Drive
170,5.800099048799682E-4,0.025359158955731438,0.002082165,29.78166337966919,5.784751882553101,-0.887671987,-0.171499245,-0.009086392,-0.009671681,0.9850944483164444,-0.021222783,0.015939027206628646,0.3449023918619434,9.953854746,-0.13310076,0.21408793301258272,45,0.12206555902957916,1.0572969913482666,9.946000099182129,0.32087627053260803,347.2654113769531,158.89999389648438,-86.9126168,40.3886832,-64.66666667,7.264932631108078E-5,-1.47E-04,5.040972977334145E-5,-0.020543445,0.012986435003361656,0.001119392,-33.33881756,31.586165332794188,-27.94775955,9.953854746,-0.13310076,0.21408793301258272,Drive
171,-0.020768277,0.001192324,-0.002660671,29.85303337097168,5.813787879943848,-0.99124999,-0.171655156,-0.009356295,-0.008831188,0.9850729790706079,-0.021468921,0.014187057891372338,0.34520021804328105,9.909941765868549,-0.139698445,0.21118111872267956,45,0.10816653817892075,1.0673043727874756,9.944000244140625,0.3031179904937744,347.3297424316406,158.89999389648438,-86.9126168,40.3886834,-65.5,2.5204879014743763E-5,-2.82E-05,-5.63E-05,-0.02059089,0.013105046067350698,0.001012642,-33.26671547,31.613493385314943,-28.05097153,9.909941765868549,-0.139698445,0.21118111872267956,Drive
172,-0.005364168,0.001243053,0.001148799,29.87889736175537,5.842457880973816,-0.996129981,-0.170476168,-0.009364415,-0.008832011,0.9852776220701274,-0.021468192,0.014211612798779914,0.34280703773776305,9.901395511,-0.139651983,0.21320223873390734,45,0.10000000149011612,1.0773074626922607,9.940999984741211,0.2787092924118042,347.3784484863281,158.89999389648438,-86.9126168,40.3886834,-64.11111111,8.451044096077964E-5,-1.11E-04,-2.34E-04,-0.020531584,0.013022018271019158,8.347257338825938E-4,-33.24036343,31.64301736831665,-28.05585142,9.901395511,-0.139651983,0.21320223873390734,Drive
173,0.003139872,0.001848885,-1.39E-04,30.143881549835204,5.876007876396179,-1.112395984,-0.169372437,-0.009405754,-0.008876747,0.9854671874871621,-0.021548958,0.014309810250639342,0.3405687055335595,9.906462891587934,-0.139698445,0.21336776408755664,45,0.10000000149011612,1.0361510515213013,9.940999984741211,0.24988001585006714,347.4125977,159.39999389648438,-86.9126167,40.3886832,-66.25,7.048239226255995E-5,-1.88E-04,-2.23E-04,-0.020545612,0.012945263252521936,8.457885006254611E-4,-32.97611126,31.67571340560913,-28.17248352,9.906462891587934,-0.139698445,0.21336776408755664,Drive
174,0.019674746,0.00409087,-6.07E-04,30.05530943,5.787069907188416,-0.845703988,-0.168333936,-0.009423238,-0.008634731,0.9856471037401736,-0.021486777,0.013849526942137954,0.33845520540348534,9.947230922365652,-0.133356304,0.21283634679699406,45,0.10000000149011612,1.0461045503616333,9.93999958,0.2199065238237381,347.43524169921875,159.39999389648438,-86.9126166,40.388683,-65.11111111,-1.04E-05,-4.45E-06,-1.87E-04,-0.020626473,0.013128768318124767,8.821701800486851E-4,-33.06480549,31.587141361236572,-27.90554754,9.947230922365652,-0.133356304,0.21283634679699406,Drive
175,2.2032654401168083E-4,0.001454897,-0.002583029,29.838271446228028,5.859415898323059,-1.022847985,-0.167197821,-0.009432375,-0.008468588,0.9858417707739524,-0.021433143,0.013543616971272288,0.3361460262710608,9.950494895860986,-0.133263379,0.21081522584540172,45,0.10816653817892075,1.0560635328292847,9.939000129699707,0.1973634958267212,347.44610595703125,159.39999389648438,-86.9126164,40.3886823,-62.375,1.55677113035531E-4,-2.06E-04,-1.99E-04,-0.020460418,0.012927129457804184,8.703090699199695E-4,-33.28098953,31.660219345092774,-28.08317947,9.950494895860986,-0.133263379,0.21081522584540172,Drive
176,-0.017256561,-5.74E-04,7.321038871135527E-4,29.92989342,5.817813878059387,-0.982099984,-0.16590694,-0.009421343,-0.008569705,0.9860591280807569,-0.021427195,0.013774786831684482,0.33353014738814346,9.912273666233693,-0.137305623,0.2136262106229958,0,0.10000000149011612,1.066057801246643,9.939000129699707,0.078684986,0,159.39999389648438,-86.9126162,40.3886816,-64.66666667,-2.22E-05,-5.19E-05,-1.16E-04,-0.020638334,0.013081324,9.533368521234364E-4,-33.18997742,31.617763423919676,-28.04169945,9.912273666233693,-0.137305623,0.2136262106229958,Drive
177,-0.007064736,-2.79E-04,2.628770268079147E-4,29.784957389831543,5.854901891,-0.991493977,-0.164739483,-0.009434253,-0.008686547,0.9862536556512407,-0.021474906,0.014026341390190194,0.3311658759140274,9.899470264,-0.139187357,0.2131412577571221,0,0.10000000149011612,1.076088547706604,9.939000129699707,0.007350331,0,159.39999389648438,-86.9126161,40.3886811,-65.875,-2.22E-05,1.1416321939074443E-4,-1.39E-04,-0.020638334,0.013247379454449542,9.296146262147763E-4,-33.33503521,31.654729347229004,-28.05145941,9.899470264,-0.139187357,0.2131412577571221,Drive
178,0.005912568,0.00148005,4.4302685746868835E-4,29.897319469451904,5.86514986,-1.012965979,-0.163726969,-0.009471523,-0.008738842,0.986421458,-0.021551229,0.014139336823187406,0.3291148086196011,9.910291984,-0.138300548,0.21378662501676723,0,0.10000000149011612,1.0364878177642822,9.939000129699707,0.013735958375036716,0,158.89999389648438,-86.912616,40.3886809,-65.88888889,-8.15E-05,1.9274321407332873E-5,-1.87E-04,-0.02069764,0.013152490541772935,8.821701817440538E-4,-33.22303932,31.66461130142212,-28.07329742,9.910291984,-0.138300548,0.21378662501676723,Drive
179,0.019242453,0.004157052,-5.35E-04,29.83595335006714,5.8901598834991455,-0.981001981,-0.162643014,-0.009438452,-0.0085253,0.9866029238237918,-0.021400867,0.013752385,0.3269113496090602,9.951194735406672,-0.132705828,0.21278697990098047,0,0.10000000149011612,1.046655535697937,9.939000129699707,0.005884823,0,158.89999389648438,-86.912616,40.3886809,-65.88888889,-4.60E-05,9.044099009134671E-5,-2.82E-04,-0.020662056,0.013223657167507607,7.872812899769944E-4,-33.28428345,31.690597305297853,-28.04133358,9.951194735406672,-0.132705828,0.21278697990098047,Drive
180,0.00244923,0.001851922,0.001051418,29.840467376708986,5.894917898,-0.983441982,-0.161596491,-0.009449982,-0.008411003,0.9867757807657557,-0.021371997,0.013545792170085953,0.3247873661587539,9.953636937928431,-0.13291491,0.21323418298971306,0,0.10000000149011612,1.0564625263214111,9.939000129699707,0.002045993,0,158.89999389648438,-86.912616,40.3886809,-66.75,1.482653106083569E-6,1.9274319146841186E-5,-2.34E-04,-0.020614612,0.013152490559856869,8.347257378384543E-4,-33.27952534,31.69462333679199,-28.04328545,9.953636937928431,-0.13291491,0.21323418298971306,Drive
181,-0.018907482,-0.001577241,6.317405880076214E-4,29.830707397460937,5.890037889480591,-1.028947991,-0.160621669,-0.009489915,-0.008508046,0.9869337290236093,-0.02146864,0.013745626,0.3228149463250799,9.915122356229615,-0.137956098,0.21416053067422608,0,0.10000000149011612,1.0665265321731567,9.939000129699707,5.208876100368798E-4,0,158.89999389648438,-86.912616,40.3886809,-65.75,3.70659902737051E-5,-1.23E-04,-1.51E-04,-0.020579029,0.013010157217967857,9.177535132604461E-4,-33.28916332,31.690719299316406,-28.08879139,9.915122356229615,-0.137956098,0.21416053067422608,Drive
182,-0.009317921,4.916591569781303E-4,-0.00120718,29.75982530593872,5.921391878128052,-0.953551983,-0.159547192,-0.009533026,-0.008706744,0.9871058011284242,-0.021602311,0.014147484719824906,0.3206436874774786,9.898140333231213,-0.139651983,0.2130396214937701,0,0.10000000149011612,1.0766113996505737,9.939000129699707,9.907296043820679E-5,0,158.89999389648438,-86.912616,40.3886809,-68,5.8735331269697504E-5,-1.88E-04,-2.47E-04,-0.020557359,0.012945263261476962,8.222943780800471E-4,-33.35980129,31.72109733581543,-28.01327343,9.898140333231213,-0.139651983,0.2130396214937701,Drive
183,0.003019694,0.00121168,-0.001829018,29.88585142,5.881375889778138,-0.93573999,-0.158463973,-0.009554495,-0.008720148,0.9872799590953345,-0.021633452,0.014190833,0.3184499364454769,9.904639271856512,-0.139257052,0.21251110956796165,0,0.10000000149011612,1.0348918437957764,9.939000129699707,7.4742354627233E-5,0,159.39999389648438,-86.912616,40.3886809,-66.875,4.8927100402420584E-5,-2.06E-04,-1.28E-04,-0.020567168,0.012927129,9.414757380388605E-4,-33.23487339,31.68108133,-27.99546152,9.904639271856512,-0.139257052,0.21251110956796165,Drive
184,0.020345067514956575,0.004351862,2.1210602186258557E-4,29.80740535736084,5.914071860313416,-1.03809799,-0.157583957,-0.00954058,-0.008548228,0.9874224604912174,-0.021539075,0.013874970819547918,0.31666276119287734,9.945125542798088,-0.133309842,0.21411697262699164,0,0.10816653817892075,1.0448321104049683,9.939000129699707,4.961018930771388E-5,0,159.39999389648438,-86.912616,40.3886809,-66.66666667,-3.41E-05,6.671876305244067E-5,-2.34E-04,-0.020650195,0.013199935025237138,8.347257350128397E-4,-33.3117334,31.71475341796875,-28.09794144,9.945125542798088,-0.133309842,0.21411697262699164,Drive
185,0.006384174,8.334751123363532E-4,-3.17E-04,29.900735301971437,5.861855883598327,-0.956845969,-0.156630486,-0.009511735,-0.008375974,0.9875758730092095,-0.021414591,0.013564557813614318,0.3147269498954699,9.957176838106323,-0.134099705,0.21290604133629104,0,0.09433981,1.0548732280731201,9.939000129699707,2.3805478122085333E-5,0,159.39999389648438,-86.912616,40.3886809,-67.125,-6.97E-05,-2.82E-05,-1.63E-04,-0.020685779,0.013105046103518564,9.058924059573453E-4,-33.21889137,31.66204939,-28.0165675,9.957176838106323,-0.134099705,0.21290604133629104,Drive
186,-0.017949586,-3.71E-04,2.2149237903576453E-4,29.752505264282227,5.934201860427857,-1.013697984,-0.155486111,-0.009495017,-0.008514623,0.9877556788111196,-0.021408983,0.013868493597629001,0.3124131522711041,9.917458974,-0.137978437,0.21323155819510037,0,0.10000000149011612,1.0648127794265747,9.939000129699707,9.096954272536095E-6,0,159.39999389648438,-86.912616,40.3886809,-68.77777778,3.706598914345925E-5,4.299654449037846E-5,-2.82E-04,-0.020579029,0.013176212783505037,7.872812894118714E-4,-33.36773144,31.734639320373535,-28.07366346,9.917458974,-0.137978437,0.21323155819510037,Drive
187,-0.010131067,0.001483474,-1.53E-04,29.877799339294434,5.8777158832550045,-0.855341973,-0.154255597,-0.009494166,-0.008632061,0.9879476132902126,-0.021426337,0.014127465579839587,0.3099250570662971,9.900524426432488,-0.138583343,0.2124617421655979,0,0.10000000149011612,1.0748435258865356,9.939000129699707,0.005043512,0,159.39999389648438,-86.912616,40.3886808,-68.25,4.892710266291227E-5,-1.47E-04,-2.34E-04,-0.020567168,0.012986435012403623,8.347257361430855E-4,-33.24219341,31.677909412384032,-27.91542948,9.900524426432488,-0.138583343,0.2124617421655979,Drive
188,0.001468566,8.105396211725995E-4,-0.001389726,29.787031326293945,5.905409865379333,-0.94952598,-0.15357045,-0.009586798,-0.008660623,0.9880531667505653,-0.021608415,0.014170272104008105,0.3085402308158504,9.903683866111978,-0.13941967,0.21297283152353416,0,0.10000000149011612,1.0345836877822876,9.939000129699707,0.001499142,0,158.89999389648438,-86.912616,40.3886809,-66.66666667,7.264932631108078E-5,-1.11E-04,-2.58E-04,-0.020543445,0.013022018334312924,8.1100351306004E-4,-33.33357143,31.705969409942625,-28.00912548,9.903683866111978,-0.13941967,0.21297283152353416,Drive
189,0.019350042620908867,0.00506103,1.244822752128527E-4,29.851447410583496,5.872347874641418,-0.971607977,-0.152599592,-0.009544756,-0.008516333,0.9882052592860843,-0.021467301,0.013919147066048626,0.3065709836274675,9.943272877665398,-0.133054298,0.21253143561985885,0,0.09433981,1.0446665287017822,9.937999725341797,0.001850613,0,158.89999389648438,-86.912616,40.3886809,-69.75,-5.78E-05,1.4974655655836596E-4,-3.41E-04,-0.020673917,0.013282962776358846,7.279757302914502E-4,-33.26769127,31.672785224914552,-28.03157358,9.943272877665398,-0.133054298,0.21253143561985885,Drive
190,0.00855907,0.002609122,0.001138192,29.830951347351075,5.937251877784729,-0.92854199,-0.151689821,-0.009523674,-0.008285021,0.9883474910143509,-0.021342481,0.013488072540285518,0.3047237193700179,9.958939468976363,-0.131753345,0.21318481717873544,0,0.10000000149011612,1.0545300245285034,9.937999725341797,0.001073207,0,158.89999389648438,-86.912616,40.3886809,-66.11111111,4.892710492340396E-5,6.671876587805528E-5,-2.58E-04,-0.020567168,0.013199935016195171,8.110035124949171E-4,-33.28879738,31.7357373,-27.98875137,9.958939468976363,-0.131753345,0.21318481717873544,Drive
191,-0.019076237,-8.71E-04,-4.17E-04,29.852179336547852,5.906629891395569,-0.934519981,-0.15057506,-0.009523118,-0.008385279,0.9885170895319718,-0.021356358,0.013710522146608967,0.30247083220344323,9.921008637807901,-0.136957153,0.2126243622268288,0,0.10000000149011612,1.0645718574523926,9.937999725341797,4.592831537593156E-4,0,158.89999389648438,-86.912616,40.3886809,-64.625,1.057235808380378E-4,2.3494142134530612E-5,-1.53E-04,-0.020510371,0.013156710326886522,9.162708755376606E-4,-33.26781338,31.70731140136719,-27.99460749,9.921008637807901,-0.136957153,0.2126243622268288,Drive
192,-0.009819262,4.104850361648115E-5,5.01040405440099E-4,29.834001502990724,5.9215138721466065,-0.849973984,-0.149841717,-0.009591476,-0.008533296,0.9886266016265721,-0.021525814,0.013998543337276839,0.3009920299631878,9.901128407820915,-0.138653037,0.2139688736026727,0,0.10000000149011612,1.0745739936828613,9.937999725341797,1.530489680590108E-4,0,158.89999389648438,-86.912616,40.3886809,-65.66666667,3.706598631784464E-5,-1.94E-04,-1.63E-04,-0.020579029,0.012938990565107285,9.058924020014848E-4,-33.28647915,31.72146329879761,-27.90981747,9.901128407820915,-0.138653037,0.2139688736026727,Drive
193,-4.13E-04,5.622132889275412E-4,-1.73E-04,29.82899942398071,5.881985883712769,-0.975145981,-0.148808444,-0.009604818,-0.008587471,0.9887820545909474,-0.021553733,0.014124176,0.29890360299823354,9.901987937,-0.139257051,0.21338518651075733,0,0.09433981,1.0333956480026245,9.937999725341797,3.456800914136693E-5,0,158.89999389648438,-86.912616,40.3886809,-68.11111111,7.264932857157247E-5,1.9274315756103656E-5,-1.99E-04,-0.020543445,0.013152490568898835,8.703090687897237E-4,-33.29135918,31.683521366119386,-28.03486752,9.901987937,-0.139257051,0.21338518651075733,Drive
194,0.019242499638529656,0.003518596,3.085771521318306E-4,29.975521354675294,5.882961879,-0.857781989,-0.148099538,-0.009615984,-0.008516564,0.9888889922679049,-0.021544689,0.013996067845705644,0.2974681952624645,9.938048714572943,-0.13526127,0.21413729882356033,0,0.10000000149011612,1.0433381795883179,9.937999725341797,7.815230418373176E-8,0,158.89999389648438,-86.912616,40.3886809,-67.625,-1.04E-05,4.299654505550138E-5,-2.82E-04,-0.020626473,0.013176213,7.872812894118714E-4,-33.14471554,31.682423572540284,-27.9181134,9.938048714572943,-0.13526127,0.21413729882356033,Drive
195,0.009537308,0.002620996,-0.001429877,29.792155380249024,5.933591881,-1.101537992,-0.147335516,-0.00957707,-0.008304022,0.9890053098641552,-0.021394128,0.013603759061508966,0.2959171663788916,9.959103254171518,-0.132847673,0.21201501528804118,0,0.10000000149011612,1.0533404350280762,9.937999725341797,5.471254553413019E-6,0,158.89999389648438,-86.912616,40.3886809,-68.33333333,-8.15E-05,-1.63E-05,-1.87E-04,-0.02069764,0.013116907,8.821701834394226E-4,-33.32734947,31.733419361114503,-28.16138153,9.959103254171518,-0.132847673,0.21201501528804118,Drive
196,-0.015380091,-8.49E-04,2.443535814007509E-4,29.93526144,5.867589898109436,-0.844117985,-0.14682474,-0.009629583,-0.008336412,0.9890804232902897,-0.021500453,0.013663440517791845,0.29488590504359274,9.923906678134955,-0.136492527,0.21357684553537554,0,0.10000000149011612,1.0633704662322998,9.937999725341797,0.005050323,0,158.89999389648438,-86.912616,40.3886808,-66.625,1.2009378038889286E-4,-1.82E-04,-9.19E-05,-0.020496001,0.012950851672410387,9.770590701203756E-4,-33.18448727,31.667417278289793,-27.90432737,9.923906678134955,-0.136492527,0.21357684553537554,Drive
197,-0.012356212,-2.07E-04,-8.61E-04,29.768731384277345,5.955307889,-1.024067982,-0.145760961,-0.009607128,-0.008541703,0.9892362414054501,-0.021501301,0.014099270783509444,0.29274016531925756,9.902318982244696,-0.139814602,0.21246174332296963,0,0.09433981,1.0733442306518555,9.937999725341797,0.003560866,0,158.89999389648438,-86.912616,40.3886808,-65.77777778,-1.05E-04,-7.56E-05,-3.05E-04,-0.020721362,0.013057601674306162,7.635590635032113E-4,-33.35138336,31.755135402679443,-28.08403341,9.902318982244696,-0.139814602,0.21246174332296963,Drive
198,-0.001583349,7.738055824076088E-4,6.353146242863923E-5,29.964907417297365,5.847093911170959,-0.955259992,-0.145019069,-0.009585916,-0.008622123,0.9893448138699948,-0.021472126,0.014280696092083038,0.291242197,9.901026762804939,-0.14086001,0.21323127914400933,0,0.10000000149011612,1.0330829620361328,9.937999725341797,0.003345374,0,159.1999969482422,-86.912616,40.3886809,-66.625,-2.22E-05,-2.82E-05,-2.34E-04,-0.020638334,0.013105046,8.347257344477168E-4,-33.15471924,31.647043437957763,-28.01522547,9.901026762804939,-0.14086001,0.21323127914400933,Drive
199,0.019015747366599667,0.004572887,-1.74E-04,29.86206132888794,5.932615880966186,-1.001375981,-0.14442406,-0.00958584,-0.008534323,0.9894326109330631,-0.021438005,0.014119872642518247,0.2900372292231588,9.937650893498393,-0.135354194,0.21195646252446962,0,0.10000000149011612,1.0429800748825073,9.937999725341797,0.002929582,0,159.1999969482422,-86.912616,40.3886809,-67.33333333,-4.60E-05,7.857987770213953E-5,-3.05E-04,-0.020662056,0.013211796096372373,7.635590685893175E-4,-33.25805328,31.73219938278198,-28.0617074,9.937650893498393,-0.135354194,0.21195646252446962,Drive
200,0.010930455647982083,0.002900256,3.098915689266645E-4,29.804111557006834,5.876983885765076,-0.908167987,-0.143923508,-0.009564814,-0.008281832,0.9895079170282071,-0.021316424,0.013637083466164768,0.2890187825721044,9.959973261194321,-0.132636135,0.212786982,0,0.09433981,1.052977204322815,9.937999725341797,0.001531858,0,159.1999969482422,-86.912616,40.3886809,-68.25,-8.22E-05,1.1747064015183311E-4,-1.88E-04,-0.020698324,0.013250686881992105,8.810296903203169E-4,-33.31600334,31.676567401885986,-27.96813347,9.959973261194321,-0.132636135,0.212786982,Drive
201,-0.017638281,-6.46E-04,8.076500256084701E-4,29.807649478912353,5.873323893547058,-0.890599979,-0.143817248,-0.009559542,-0.008364193,0.989522726,-0.021328255,0.013803893239101738,0.2888060553559979,9.922855460528032,-0.137816711,0.21295250395258652,0,0.09433981,1.063004493713379,9.937999725341797,6.119144381955266E-4,0,159.1999969482422,-86.912616,40.3886809,-65.44444444,-3.41E-05,-9.93E-05,-3.65E-04,-0.020650195,0.013033879468741925,7.042535072084046E-4,-33.31258736,31.672907371520996,-27.95056543,9.922855460528032,-0.137816711,0.21295250395258652,Drive
202,-0.01053462,0.001105381,-0.001339322,29.877921371459962,5.871249876022339,-0.977707979,-0.143704363,-0.009557871,-0.008525866,0.9895377581559338,-0.021369908,0.014126771843983131,0.28858202464372207,9.902214466946797,-0.13888535,0.21062937516321256,0,0.09433981,1.0730003118515015,9.937999725341797,1.875595626188442E-4,0,159.1999969482422,-86.912616,40.3886809,-67.22222222,-1.05E-04,1.3788544077842125E-4,-1.99E-04,-0.020721362,0.013271102,8.703090693548466E-4,-33.24255924,31.671321411132812,-28.03767357,9.902214466946797,-0.13888535,0.21062937516321256,Drive
203,-6.24E-04,0.001113918,0.001378245,29.90293140411377,5.838675899505615,-0.910119993,-0.143859009,-0.009602124,-0.008588812,0.989514316,-0.02147787,0.014235265281738586,0.2888967973514668,9.902397424271964,-0.139814602,0.21420408922781065,0,0.10000000149011612,1.033403754234314,9.937999725341797,0.004992129,0,159.39999389648438,-86.912616,40.3886808,-67.625,-1.41E-04,-4.45E-06,-3.17E-04,-0.020756945,0.013128768,7.516979545047416E-4,-33.21681751,31.639235286712648,-27.97020742,9.902397424271964,-0.139814602,0.21420408922781065,Drive
204,0.019257823240409776,0.003512868,7.677007358051041E-4,29.83912534713745,5.9115098857879635,-1.058105986,-0.143730676,-0.009559849,-0.008498915,0.9895341604658701,-0.021366448,0.014072303795843448,0.2886345429906567,9.938767148898197,-0.135815693,0.2134817698254035,0,0.17691805958747864,1.0432498455047607,9.937999725341797,0.001516391,0,159.39999389648438,-86.912616,40.3886809,-68.11111111,-3.41E-05,1.97190996508105E-4,-2.70E-04,-0.020650195,0.013330407232697149,7.991424018010786E-4,-33.28159935,31.71255741119385,-28.11807144,9.938767148898197,-0.135815693,0.2134817698254035,Drive
