seconds_elapsed,accelerometerUncalibrated_z,accelerometerUncalibrated_y,accelerometerUncalibrated_x,location_bearingAccuracy,location_speedAccuracy,location_verticalAccuracy,location_horizontalAccuracy,location_speed,location_bearing,location_altitude,location_longitude,location_latitude,totalAcceleration_z,totalAcceleration_y,totalAcceleration_x,magnetometer_z,magnetometer_y,magnetometer_x,gyroscopeUncalibrated_z,gyroscopeUncalibrated_y,gyroscopeUncalibrated_x,accelerometer_z,accelerometer_y,accelerometer_x,gyroscope_z,gyroscope_y,gyroscope_x,orientation_qz,orientation_qy,orientation_qx,orientation_qw,orientation_roll,orientation_pitch,orientation_yaw,microphone_dBFS,magnetometerUncalibrated_z,magnetometerUncalibrated_y,magnetometerUncalibrated_x,class
0,9.927293272579417,0.099800645,0.17860544370669945,45,1.5,2.690147638320923,53.92900085449219,0,0,155.1999969482422,-86.9101266,40.4246817,9.927448540403132,0.1003883552917263,0.17871656543330142,-54.42245606,-28.89962087,13.728921055793762,-0.020837959,0.012392707942229396,0.001247627,-0.00234936,-0.002880456,-7.33E-04,-1.94E-04,-7.01E-04,4.1413373487480615E-4,0.9715523596467643,0.002921832,0.010004719622947019,0.2365953267134469,-0.018059608,-0.010411753,-2.663939846,-98.88888889,-117.488935,-3.106255483,-13.30703677,Garage
1,9.892535718899328,0.097864704,0.17685398647507417,45,1.5,2.690147638320923,53.92900085449219,0,0,155.1999969482422,-86.9101266,40.4246817,9.892535718899328,0.097864704,0.17685398647507417,-54.44554901,-28.91704948,13.646309719085693,-0.020828112,0.012618740405706525,9.177535177814295E-4,-0.019067311,-0.002198439,-0.002977041,-2.12E-04,-5.14E-04,1.541944537130953E-4,0.9716024259919102,0.002762979,0.010000718847929854,0.23639173386166396,-0.018129061,-0.01009738,-2.664356685,-80.875,-117.5662736,-3.116123934,-13.4136557,Garage
2,9.893581131129588,0.09635467,0.17520456594749562,45,1.5,2.690147638320923,53.92900085449219,0,0,155.1999969482422,-86.9101266,40.4246817,9.893581131129588,0.09635467,0.17520456594749562,-54.36014896,-28.92046558,13.614711771011352,-0.020816251,0.012749212676460304,9.05892407652714E-4,0.003148264,-0.001368092,-0.00327242,-2.00E-04,-3.84E-04,1.4233334188901105E-4,0.9716951534586046,0.002673994,0.009926604,0.23601444181308007,-0.018030919,-0.00988243,-2.66513133,-83.66666667,-117.4800192,-3.120759933,-13.44525377,Garage
3,9.926903623801012,0.10003839246928692,0.17736797837110665,45,1.5,2.690147638320923,53.92900085449219,0,0,155.1999969482422,-86.9101266,40.4246817,9.926903623801012,0.10003839246928692,0.17736797837110665,-54.33660263,-28.92241753,13.631303749084474,-0.020982306,0.013033879414490126,7.991424034964474E-4,0.013749446683717005,0.001146627,-8.04E-04,-3.66E-04,-9.93E-05,3.558333547225276E-5,0.9717530422997707,0.002727844,0.009903656,0.23577638303191917,-0.017963354,-0.009971846,-2.665621834,-89.25,-117.4567182,-3.122345939,-13.42866173,Garage
4,9.934398484461516,0.10181402270365687,0.1760408914494283,45,1.5,2.690147638320923,53.92900085449219,0,0,155.1999969482422,-86.9101266,40.4246817,9.934398484461516,0.10181402270365687,0.1760408914494283,-54.29902691,-28.97280355,13.545537700653076,-0.020994167,0.013010157217967857,7.991424034964474E-4,0.005432666,8.68934957147802E-4,-6.95E-04,-3.78E-04,-1.23E-04,3.558333547225276E-5,0.9718142435388658,0.002848769,0.0098379,0.23552529267894412,-0.01778117,-0.010171274,-2.666139603,-92.22222222,-117.4184095,-3.173707974,-13.51418373,Garage
5,9.936172846451546,0.10202310386213284,0.1759711977058244,0,1.5,7.976938247680664,53.03200149536133,0.032553281635046005,0,155.1999969482422,-86.9101158,40.4246796,9.936172846451546,0.10202310386213284,0.1759711977058244,-54.41712299,-28.9381555,13.576159772872925,-0.020946723,0.013081323916038263,8.58447960356377E-4,0.001159594,-8.33E-06,-2.16E-05,-3.31E-04,-5.19E-05,9.488889459267403E-5,0.9718800748436196,0.002909773,0.009815495,0.23525371322932753,-0.017711759,-0.010274345,-2.666699081,-95.5,-117.5372379,-3.138449953,-13.48368375,Garage
6,9.905940194731777,0.099026268,0.1766913674988793,0,1.5,7.976938247680664,53.03200149536133,0.032553281635046005,0,155.1999969482422,-86.9101158,40.4246796,9.905940194731777,0.099026268,0.1766913674988793,-54.37442303,-28.96523941,13.769529733657837,-0.020982306,0.013176213,6.805312818648673E-4,-0.016181668,-0.001251253,2.1744208428466205E-4,-3.66E-04,4.299654166476385E-5,-8.30E-05,0.9718739951698525,0.002824797,0.009821845,0.23527957209684316,-0.017763808,-0.01011263,-2.666644768,-94.22222222,-117.4950259,-3.16504595,-13.29080174,Garage
7,9.882276192452144,0.094496167,0.17691787238259918,0,1.5,7.976938247680664,53.03200149536133,0.032553281635046005,0,155.1999969482422,-86.9101158,40.4246796,9.882276192452144,0.094496167,0.17691787238259918,-54.37295891,-29.06003355,13.69657374382019,-0.021085977,0.012827792616847616,7.753061245938835E-4,-0.0120726,-0.001933817,-2.85E-04,-4.70E-04,-3.05E-04,1.1747062671929598E-5,0.9718543623502438,0.002632575,0.009841541,0.23536206695895928,-0.017891673,-0.009749766,-2.666472563,-72,-117.492464,-3.260571978,-13.36339172,Garage
8,9.884117284,0.09472848,0.17933973366195716,0,1.5,7.976938247680664,53.03200149536133,0.032553281635046005,0,155.1999969482422,-86.9101158,40.4246796,9.884117284,0.09472848,0.17933973366195716,-54.3267207,-29.4253014,13.83516571044922,-0.021065334,0.013318546134436015,0.001000781,-4.14E-04,6.73782044244044E-5,7.17852879496454E-4,-4.49E-04,1.853298914654958E-4,2.3722223648168508E-4,0.9718381993978926,0.002529323,0.009901703,0.23542739928347392,-0.018056574,-0.009578604,-2.666337217,-85.66666667,-117.4465918,-3.624863906,-13.22479975,Garage
9,9.920543957682488,0.09923535,0.17709501037030545,0,1.5,7.976938247680664,53.03200149536133,0.032553281635046005,0,155.1999969482422,-86.9101158,40.4246796,9.920543957682488,0.09923535,0.17709501037030545,-54.23278088,-29.27304544,13.742933712005616,-0.021100917,0.013045740548919127,8.703090682246008E-4,0.020259885,4.7470224135130355E-4,-0.001721706,-4.85E-04,-8.75E-05,1.0675000641675828E-4,0.971842637,0.002723633,0.00994711,0.23540441257861053,-0.018053554,-0.009977436,-2.666387574,-87.33333333,-117.3521639,-3.472119944,-13.31764171,Garage
10,9.946522407,0.10583303507091929,0.18098915614260053,45,1.5,2.0143778324127197,34.35499954223633,1.3951061964035034,295.2401428222656,155.1999969482422,-86.910306,40.4247474,9.946522407,0.10583303507091929,0.18098915614260053,-54.29487873,-29.29744547,13.746593704223633,-0.021065334,0.013140629452553768,9.296146233891616E-4,0.012812799620396883,0.001960775,8.827349514637179E-4,-4.49E-04,7.413203366896481E-6,1.6605556553717955E-4,0.9717971717269676,0.002947992,0.010036174235051697,0.23558581511951188,-0.018119205,-0.010458786,-2.666018227,-89.5,-117.414018,-3.496031935,-13.31324971,Garage
11,9.921229417507465,0.10148789088886517,0.1807271338139589,45,1.5,2.0143778324127197,34.35499954223633,1.3951061964035034,295.2401428222656,155.1999969482422,-86.910306,40.4247474,9.921229417507465,0.10148789088886517,0.1807271338139589,-54.29524479,-29.30574146,13.879817724227905,-0.020982306,0.013010157,8.465868479671698E-4,-0.012513753,-0.002714402,0.001786447,-3.66E-04,-1.23E-04,8.302778276858978E-5,0.9718200367631264,0.002991451,0.009984433,0.23549337193225195,-0.017999172,-0.010517071,-2.666208594,-82.22222222,-117.4149938,-3.504937928,-13.18014771,Garage
12,9.893287890165755,0.1011403157201695,0.17983920742007134,45,1.5,2.0143778324127197,34.35499954223633,1.3951061964035034,295.2401428222656,155.1999969482422,-86.910306,40.4247474,9.893287890165755,0.1011403157201695,0.17983920742007134,-54.1082188,-29.30183737,13.740981702804566,-0.021041612,0.013010157217967857,8.228646101909282E-4,-0.014291921,-7.07E-05,2.7881526541941374E-4,-4.26E-04,-1.23E-04,5.930555912042127E-5,0.97183703,0.002819598,0.009966155,0.23542614816461951,-0.018045233,-0.010173163,-2.666344416,-79.75,-117.2276017,-3.501643939,-13.31886175,Garage
13,9.893891899331102,0.099978751,0.17653745933643822,45,1.5,2.0143778324127197,34.35499954223633,1.3951061964035034,295.2401428222656,155.1999969482422,-86.910306,40.4247474,9.893891899331102,0.099978751,0.17653745933643822,-54.18276089,-29.35149141,13.69779377937317,-0.020970445,0.013033879,7.398368375945511E-4,-0.00140504,2.6660586155734017E-4,-0.002072814,-3.54E-04,-9.93E-05,-2.37E-05,0.9718618445026065,0.00277964,0.010000399666503795,0.2353227297657902,-0.018131711,-0.010109692,-2.666556995,-81.88888889,-117.3031197,-3.550809925,-13.36229374,Garage
14,9.924690784,0.1044159267669616,0.1818864639233617,45,1.5,2.0143778324127197,34.35499954223633,1.3951061964035034,295.2401428222656,155.1999969482422,-86.910306,40.4247474,9.924690784,0.1044159267669616,0.1818864639233617,-54.15079693,-29.39126341,13.647651777267455,-0.021053473,0.013413435047112622,6.33086815919474E-4,0.017589069107203807,0.003137786,0.004069878,-4.37E-04,2.8021878153718647E-4,-1.30E-04,0.9719392506821641,0.002805923,0.009895902,0.23500676901595105,-0.017919454,-0.010105802,-2.667206496,-73.625,-117.2710343,-3.591801915,-13.41255775,Garage
15,9.951557770516109,0.10751730407976988,0.1765810188710762,45,1.5,8.278874397277832,62.49399948120117,0.28943270444869995,307.05548095703125,155.1999969482422,-86.9102535,40.4247347,9.951557770516109,0.10751730407976988,0.1765810188710762,-54.17592915,-29.3268475,13.625325746536255,-0.020946723,0.013176212855840771,7.279757212494835E-4,0.024125182512894416,0.003266458,-0.003875278,-3.31E-04,4.299652923205958E-5,-3.56E-05,0.971907246,0.003035282,0.010015476088139038,0.2351306925699549,-0.018042639,-0.010610304,-2.666955811,-59,-117.2960435,-3.527629895,-13.43463974,Garage
16,9.933080127,0.09888688,0.17926713657899968,45,1.5,8.278874397277832,62.49399948120117,0.28943270444869995,307.05548095703125,155.1999969482422,-86.9102535,40.4247347,9.933080127,0.09888688,0.17926713657899968,-54.21777485,-28.7300234,13.567131719589234,-0.021003748,0.012839539666087009,8.340414295581958E-4,0.007609927,-0.003837725,-0.003556186,-3.88E-04,-2.94E-04,7.048237603157759E-5,0.971868495,0.00285302,0.010216902,0.23528466359353983,-0.018518264,-0.010353518,-2.666638374,-89.5,-117.3383775,-2.929219918,-13.49258978,Garage
17,9.900295044611958,0.096261745,0.17715599264913393,45,1.5,8.278874397277832,62.49399948120117,0.28943270444869995,307.05548095703125,155.1999969482422,-86.9102535,40.4247347,9.900295044611958,0.096261745,0.17715599264913393,-54.19727901,-28.75600948,13.545903692245483,-0.021006028,0.013188073899850104,6.923923840818619E-4,-0.009890806,-0.002740249,-0.002340944,-3.90E-04,5.4857652923725184E-5,-7.12E-05,0.9719717878739811,0.002730933,0.009968838,0.23487006778855926,-0.01809788,-0.009991729,-2.667487452,-89.44444444,-117.3177598,-2.955693913,-13.51418371,Garage
18,9.899368684268692,0.10046660780762005,0.17473993963986925,45,1.5,8.278874397277832,62.49399948120117,0.28943270444869995,307.05548095703125,155.1999969482422,-86.9102535,40.4247347,9.899368684268692,0.10046660780762005,0.17473993963986925,-54.18581093,-28.6898855,13.468799772262573,-0.021148362,0.013128768381418533,8.110035068436878E-4,-0.001305895,5.914860775748503E-4,-7.50E-04,-5.32E-04,-4.45E-06,4.7444447296337016E-5,0.9720156320090433,0.002825864,0.009791616,0.23469496192862688,-0.017710586,-0.010089829,-2.667847418,-82.22222222,-117.3056816,-2.888959918,-13.59104378,Garage
19,9.925573645286189,0.10044337652659821,0.1752045646454524,45,1.5,8.278874397277832,62.49399948120117,0.28943270444869995,307.05548095703125,155.1999969482422,-86.9102535,40.4247347,9.925573645286189,0.10044337652659821,0.1752045646454524,-53.74234112,-27.37753136,11.516921739578247,-0.020982306,0.013259240606962477,4.788923780298204E-4,0.015474393529799377,0.001319919,-1.86E-05,-3.66E-04,1.2602431878212442E-4,-2.85E-04,0.9721314750828789,0.002794283,0.009759048,0.2342161594085323,-0.017666987,-0.010004464,-2.668831723,-75.5,-116.8623341,-1.577581966,-15.54292166,Garage
20,9.957947125801674,0.095997629,0.17524549961000538,45,1.5,8.278874397277832,62.49399948120117,0.28943270444869995,307.05548095703125,155.1999969482422,-86.9102535,40.4247347,9.957947125801674,0.095997629,0.17524549961000538,-50.85081921,-19.58234158,8.323815879821778,-0.021006029,0.013140629479679668,5.144757208486711E-4,0.042205315191768907,-0.003465514,-0.005695996,-3.90E-04,7.413215799600754E-6,-2.49E-04,0.9721035361289978,0.002782158,0.010052103449780386,0.2343192511391871,-0.018241278,-0.01012023,-2.668622135,-66.11111111,-113.9705676,6.217119849,-18.73614962,Garage
21,9.941437674957571,0.10206956656545726,0.1750419462479434,45,1.5,4.606010437011719,63.48099899291992,0.1389235109090805,179.5688477,155.1999969482422,-86.9102293,40.4247035,9.941437674957571,0.10206956656545726,0.1750419462479434,-50.63829548,-18.86205364,8.169363852,-0.021041612,0.013105046076392665,8.46586832143728E-4,0.001836721,0.00345842,-0.001969146,-4.26E-04,-2.82E-05,8.302778276858978E-5,0.9722539649426358,0.002731041,0.009802942,0.23370615906507067,-0.017787111,-0.009892721,-2.669880397,-79.625,-113.7585318,6.937773823738098,-18.89035769,Garage
22,9.906962404,0.098120248,0.17441470096412215,45,1.5,4.606010437011719,63.48099899291992,0.1389235109090805,179.5688477,155.1999969482422,-86.9102293,40.4247035,9.906962404,0.098120248,0.17441470096412215,-50.61279732,-18.85119577,8.123247857,-0.020970445,0.012998296110664756,5.381979354548729E-4,-0.014273486,8.210452653250648E-4,-6.22E-04,-3.54E-04,-1.35E-04,-2.25E-04,0.9723421601415838,0.002695525,0.009710677,0.23334337655201698,-0.01762797,-0.00977395,-2.670625307,-83.11111111,-113.7340092,6.947777848243714,-18.93647373,Garage
23,9.899667832457904,0.096865758,0.17388038149157775,45,1.5,4.606010437011719,63.48099899291992,0.1389235109090805,179.5688477,155.1999969482422,-86.9102293,40.4247035,9.899667832457904,0.096865758,0.17388038149157775,-50.58937332,-18.83850771,8.215357823371887,-0.021077195,0.013152490523689001,8.11003505148319E-4,-0.00476339,2.5281172643587427E-4,-2.29E-04,-4.61E-04,1.9274317451472423E-5,4.7444447296337016E-5,0.9723915891739928,0.002694294,0.009681535,0.2331385616827937,-0.017573936,-0.009754256,-2.671046252,-86.625,-113.7087552,6.962417840957642,-18.84448559,Garage
24,9.919788953170036,0.098840418,0.17494902101535242,45,1.5,4.606010437011719,63.48099899291992,0.1389235109090805,179.5688477,155.1999969482422,-86.9102293,40.4247035,9.919788953170036,0.098840418,0.17494902101535242,-50.54386719,-18.93147175,8.189493856430055,-0.020956759,0.013086227986675043,7.400649432943632E-4,0.012115157567537747,0.001407484,2.185954497410701E-4,-3.41E-04,-4.70E-05,-2.35E-05,0.972416776,0.002719216,0.009708055,0.23303211537691262,-0.017614982,-0.009813158,-2.671265776,-85,-113.6645918,6.868599872589112,-18.87010572,Garage
25,9.95706661,0.10285943044910154,0.17306728689994627,45,1.5,4.606010437011719,63.48099899291992,0.1389235109090805,179.5688477,155.1999969482422,-86.9102293,40.4247035,9.95706661,0.10285943044910154,0.17306728689994627,-50.45529526,-18.90072765,8.130079836845399,-0.021112778,0.012938990519897452,8.821701794835622E-4,0.016766696,0.001536705,-8.76E-04,-4.97E-04,-1.94E-04,1.1861111824084254E-4,0.9724467882832277,0.002921559,0.009688864,0.2329051974907662,-0.017484716,-0.010195474,-2.671529319,-85.55555556,-113.5755318,6.899099822044373,-18.92988565,Garage
26,9.945909732,0.10186048531995236,0.17369453073705285,45,1.5,4.470489978790283,68.13600158691406,0.6391459107398987,70.6105957,155.1999969482422,-86.9101862,40.4247163,9.945909732,0.10186048531995236,0.17369453073705285,-50.55106499,-18.87766977,8.195959835,-0.021053473,0.013069462799693196,8.110035124949171E-4,-0.005515784,-5.91E-04,-4.69E-04,-4.37E-04,-6.38E-05,4.7444447296337016E-5,0.9724738048118295,0.002971982,0.009701583,0.2327912051990194,-0.017487181,-0.010297421,-2.671764536,-84.5,-113.6706918,6.922401809692383,-18.86400562,Garage
27,9.908295261049734,0.099142424,0.17381068774797384,45,1.5,4.470489978790283,68.13600158691406,0.6391459107398987,70.6105957,155.1999969482422,-86.9101862,40.4247163,9.908295261049734,0.099142424,0.17381068774797384,-50.55984924,-18.87461969,8.169607877731323,-0.020923001,0.012938990492771552,7.398368404201657E-4,-0.01727106,-0.001157313,-6.68E-04,-3.07E-04,-1.94E-04,-2.37E-05,0.9725122770059456,0.00287211,0.0097165,0.23263105258200933,-0.017564346,-0.010107216,-2.672092685,-84.625,-113.6806956,6.924231834411621,-18.89047968,Garage
28,9.900852435,0.097005146,0.17283497302277576,45,1.5,4.470489978790283,68.13600158691406,0.6391459107398987,70.6105957,155.1999969482422,-86.9101862,40.4247163,9.900852435,0.097005146,0.17283497302277576,-50.60315899,-18.85619772,8.154235858917236,-0.021041612,0.013318546,7.991423972800953E-4,-0.00569326,-7.42E-04,2.1036678147547453E-4,-4.26E-04,1.853298863793895E-4,3.558333547225276E-5,0.9725977390715219,0.002777579,0.009613167,0.23227891542957824,-0.017410866,-0.009868975,-2.672814596,-82.66666667,-113.7230296,6.942775821685791,-18.90560759,Garage
29,9.916219418,0.097944673,0.17288143603274456,45,1.5,4.470489978790283,68.13600158691406,0.6391459107398987,70.6105957,155.1999969482422,-86.9101862,40.4247163,9.916219418,0.097944673,0.17288143603274456,-50.49677513,-18.82386766,8.140693821907043,-0.021029751,0.013057601692390095,5.856423906629309E-4,0.008964002,9.796025538907468E-4,4.4570819845477357E-5,-4.14E-04,-7.56E-05,-1.78E-04,0.9726356563058872,0.002735994,0.009610853,0.232120706,-0.017427268,-0.009784165,-2.673139336,-82,-113.6170119,6.977423853874207,-18.91890574,Garage
30,9.957028713041138,0.1031846688355057,0.17401976926812848,45,1.5,4.470489978790283,68.13600158691406,0.6391459107398987,70.6105957,155.1999969482422,-86.9101862,40.4247163,9.957028713041138,0.1031846688355057,0.17401976926812848,-50.5212973,-18.85766155,8.128493852615357,-0.021112778,0.013152490559856869,7.398368432457803E-4,0.019090309883784323,0.00269394,5.391509208864379E-4,-4.97E-04,1.927431349561197E-5,-2.37E-05,0.9726343114399215,0.002893584,0.009656189,0.23212254553743936,-0.017442327,-0.01011181,-2.673138058,-81.11111111,-113.6417779,6.943019852638245,-18.93134962,Garage
31,9.948618981,0.1016746352887848,0.17455408888534435,45,1.5,23.042022705078125,68.40000153,13.824716567993164,108.61624145507812,164.29998779296875,-86.9091774,40.4244517,9.948618981,0.1016746352887848,0.17455408888534435,-50.59559505,-18.81337568,8.176317787,-0.021041612,0.013093184996215463,5.975034996614005E-4,-0.003539002,-2.58E-05,6.41418168845686E-4,-4.26E-04,-4.00E-05,-1.66E-04,0.9726472983082521,0.002943977,0.009681758,0.23206642559431132,-0.017469276,-0.010220703,-2.67325436,-80.875,-113.7146123,6.986329874992371,-18.88364771,Garage
32,9.911428581,0.099351506,0.1726955861142538,45,1.5,23.042022705078125,68.40000153,13.824716567993164,108.61624145507812,164.29998779296875,-86.9091774,40.4244517,9.911428581,0.099351506,0.1726955861142538,-50.52910522,-18.86132162,8.214503812789918,-0.020982306,0.012915268,7.161146156417513E-4,-0.017254255,-5.00E-04,-0.001368784,-3.66E-04,-2.18E-04,-4.74E-05,0.97267591,0.0028577,0.009683539,0.23194747642405983,-0.017513996,-0.010051549,-2.673497788,-86.55555556,-113.6499516,6.9386278343200685,-18.84521765,Garage
33,9.901851422578385,0.095518344,0.17246327296044062,45,1.5,23.042022705078125,68.40000153,13.824716567993164,108.61624145507812,164.29998779296875,-86.9091774,40.4244517,9.901851422578385,0.095518344,0.17246327296044062,-50.548503,-18.80154165,8.177415862083436,-0.021038989,0.013250686873037081,8.340414385132205E-4,-0.006316625,-0.001489876,-4.44E-04,-4.23E-04,1.1747063623400978E-4,7.048237603157759E-5,0.9727420669335586,0.002752203,0.00961647,0.23167391064075324,-0.017435177,-0.009810301,-2.674058233,-83.88888889,-113.6687394,6.998041849136353,-18.88254974,Garage
34,9.915523075,0.097237459,0.17329959904105918,45,1.5,23.042022705078125,68.40000153,13.824716567993164,108.61624145507812,164.29998779296875,-86.9091774,40.4244517,9.915523075,0.097237459,0.17329959904105918,-50.55594517,-18.8285037,8.189371852874755,-0.020923001,0.012820379374530708,7.991424018010786E-4,0.008298476,8.161386239875868E-4,-2.80E-04,-3.07E-04,-3.13E-04,3.558333547225276E-5,0.9727563788589922,0.002707707,0.009642014,0.2316133178842878,-0.017506101,-0.009734472,-2.674182445,-85.25,-113.6767915,6.970469841957092,-18.87047176,Garage
35,9.956003670553558,0.10155847835019954,0.1734157550392799,45,1.5,23.042022705078125,68.40000153,13.824716567993164,108.61624145507812,164.29998779296875,-86.9091774,40.4244517,9.956003670553558,0.10155847835019954,0.1734157550392799,-50.45114689,-18.8021517,8.122881879806519,-0.021053473,0.013164351658118002,7.279757331170648E-4,0.018943286636500682,0.001846373,-1.65E-04,-4.37E-04,3.113542531969622E-5,-3.56E-05,0.9727608549942091,0.002860961,0.009651613,0.23159225603330483,-0.017454037,-0.010036712,-2.674227884,-82.77777778,-113.5701636,6.998651852607727,-18.93744974,Garage
36,9.950175498295756,0.10176756023203284,0.17285820422241988,45,1.5,9.526143074035645,58.83100128173828,7.367890357971191,289.5626525878906,155.1999969482422,-86.9099712,40.424663,9.950175498295756,0.10176756023203284,0.17285820422241988,-50.56826706,-18.82630764,8.111779870986938,-0.020958584,0.013081324,7.279757280309585E-4,-0.00320217,2.9379512789179976E-4,2.0425036115553772E-4,-3.42E-04,-5.19E-05,-3.56E-05,0.9728033704665101,0.00295492,0.009610384,0.23141415778873037,-0.017332176,-0.010197248,-2.674594881,-77.125,-113.6883815,6.974007863998413,-18.94830769,Garage
37,9.911557454329271,0.097990689,0.17338761085501084,45,1.5,9.526143074035645,58.83100128173828,7.367890357971191,289.5626525878906,155.1999969482422,-86.9099712,40.424663,9.911557454329271,0.097990689,0.17338761085501084,-50.49787334,-18.84253376,8.112145800590515,-0.021006028,0.012938990519897452,7.635590618078425E-4,-0.017786146,-0.00129817,-5.57E-04,-3.90E-04,-1.94E-04,0,0.9728214040543269,0.002841648,0.00966884,0.23133731192176782,-0.017499117,-0.010002526,-2.674751904,-71.66666667,-113.6183535,6.958269825,-18.94781965,Garage
38,9.902014204599325,0.096261745,0.17355514411787384,45,1.5,9.526143074035645,58.83100128173828,7.367890357971191,289.5626525878906,155.1999969482422,-86.9099712,40.424663,9.902014204599325,0.096261745,0.17355514411787384,-50.51348942,-18.82972374,8.155211834907531,-0.020970445,0.012903407188946182,7.161146156417513E-4,-0.00624765,-7.48E-04,-0.001083113,-3.54E-04,-2.30E-04,-4.74E-05,0.9728446365560143,0.002730066,0.009704434,0.23123941722425442,-0.017620972,-0.009800119,-2.674951965,-72,-113.6342137,6.969859843254089,-18.90487568,Garage
39,9.911405369,0.098422255,0.17348545037426996,45,1.5,9.526143074035645,58.83100128173828,7.367890357971191,289.5626525878906,155.1999969482422,-86.9099712,40.424663,9.911405369,0.098422255,0.17348545037426996,-50.5242252,-18.82557564,8.161921868,-0.020899279,0.012915268296249283,8.110035147554088E-4,0.005798905,0.001274949,-8.07E-04,-2.83E-04,-2.18E-04,4.7444447296337016E-5,0.9728742374957187,0.002732821,0.009682961,0.23111573512693054,-0.017579157,-0.00979331,-2.675206064,-74.22222222,-113.6443398,6.974617857933044,-18.89779963,Garage
40,9.954453097963796,0.10274327387219494,0.17390361355925069,45,1.5,9.526143074035645,58.83100128173828,7.367890357971191,289.5626525878906,155.1999969482422,-86.9099712,40.424663,9.954453097963796,0.10274327387219494,0.17390361355925069,-50.52154114,-18.80934965,8.159237856864928,-0.020863695,0.012915268296249283,7.516979573303562E-4,0.020271773,0.002383687,-0.001183218,-2.48E-04,-2.18E-04,-1.19E-05,0.972860142,0.002884162,0.009733168,0.2311711211517019,-0.017606365,-0.010112001,-2.675094723,-73.5,-113.6418997,6.9910878610610965,-18.90072767,Garage
41,9.953500488429393,0.10299881837032374,0.17355514353918797,45,1.5,6.029922008514404,94.70500183105469,6.602702617645264,38.31903076171875,155.29998779296875,-86.9095578,40.424929,9.953500488429393,0.10299881837032374,0.17355514353918797,-50.54325718,-18.87169165,8.166557846069336,-0.021041612,0.012784796034537473,8.821701806138079E-4,-3.74E-04,-2.14E-04,-0.001168349,-4.26E-04,-3.48E-04,1.1861111824084254E-4,0.9728697497867843,0.003020233,0.009732992,0.2311289554950103,-0.017543585,-0.010375927,-2.675183213,-75.44444444,-113.6638594,6.927525849342346,-18.8935297,Garage
42,9.913258061825651,0.097725315,0.17357837473883211,45,1.5,6.029922008514404,94.70500183105469,6.602702617645264,38.31903076171875,155.29998779296875,-86.9095578,40.424929,9.913258061825651,0.097725315,0.17357837473883211,-50.56106911,-18.79690563,8.188517818450928,-0.021003748,0.012792551424354315,7.98800254974944E-4,-0.018158986,-0.002740966,-0.001966155,-3.88E-04,-3.41E-04,3.5241188015788794E-5,0.9728934260515066,0.002880674,0.009757935,0.23103000023044074,-0.01765763,-0.010114101,-2.675385003,-73.125,-113.6813056,7.002921862602234,-18.87205769,Garage
43,9.902943444483489,0.096610214,0.1726026610263343,45,1.5,6.029922008514404,94.70500183105469,6.602702617645264,38.31903076171875,155.29998779296875,-86.9095578,40.424929,9.902943444483489,0.096610214,0.1726026610263343,-50.51714897,-18.82911358,8.134837851524352,-0.02091114,0.013069462745441395,0.001012642,-0.006692164,-0.001325604,-0.001317954,-2.95E-04,-6.38E-05,2.4908334830576936E-4,0.9729646513762983,0.002786125,0.009671532,0.2307346703358067,-0.017536162,-0.009884883,-2.675989987,-73.11111111,-113.6377518,6.971201848983765,-18.92512772,Garage
44,9.910217655515208,0.098910111,0.17357837459416064,45,1.5,6.029922008514404,94.70500183105469,6.602702617645264,38.31903076171875,155.29998779296875,-86.9095578,40.424929,9.910217655515208,0.098910111,0.17357837459416064,-50.53044708,-18.85461172,8.148745889663696,-0.020828112,0.012950851654326453,7.516979550698645E-4,0.004503398,8.58403814649119E-4,-4.21E-04,-2.12E-04,-1.82E-04,-1.19E-05,0.9729882681254044,0.002793037,0.009680342,0.23063458675898393,-0.017551137,-0.009900593,-2.676195876,-74.66666667,-113.6501958,6.945703821182251,-18.91109768,Garage
45,9.951613028072616,0.1039977637164801,0.17353191219487238,45,1.5,6.029922008514404,94.70500183105469,6.602702617645264,38.31903076171875,155.29998779296875,-86.9095578,40.424929,9.951613028072616,0.1039977637164801,0.17353191219487238,-50.57497707,-18.81825573,8.098725829,-0.020994167,0.013211796,6.686701728663977E-4,0.019674328924382773,0.002245153,5.382161985323268E-4,-3.78E-04,7.857987205091032E-5,-9.49E-05,0.973010143,0.002979664,0.009648391,0.23054128726130552,-0.017403889,-0.010247373,-2.676389831,-76.5,-113.6947257,6.983767833709717,-18.96099566,Garage
46,9.952822235914377,0.10210910460983331,0.17495214824493116,45,1.5,4.393626689910889,58.53200149536133,5.299410343170166,251.1932373046875,155.1999969482422,-86.9101043,40.4247103,9.952822235914377,0.10210910460983331,0.17495214824493116,-50.56424129,-18.84314369,8.135447845458984,-0.021041612,0.013057601683348128,7.754201764575414E-4,9.206660742898589E-4,-3.81E-04,4.4864589728198007E-4,-4.26E-04,-7.56E-05,1.1861111824084254E-5,0.9730002237755118,0.002988504,0.009711696,0.2305803756112034,-0.017522608,-0.010294469,-2.676310206,-82,-113.6847216,6.957537827,-18.92451765,Garage
47,9.915348867768223,0.097585928,0.17353191277355823,45,1.5,4.393626689910889,58.53200149536133,5.299410343170166,251.1932373046875,155.1999969482422,-86.9101043,40.4247103,9.915348867768223,0.097585928,0.17353191277355823,-50.53544914,-18.85985765,8.152405896186828,-0.021148362,0.012998296119706723,7.635590618078425E-4,-0.01712788,-0.002217351,-8.58E-04,-5.32E-04,-1.35E-04,0,0.973051325,0.002872021,0.009690682,0.2303669827366338,-0.017537599,-0.010054246,-2.676747042,-85.25,-113.6553197,6.940091843605042,-18.9075597,Garage
48,9.900295072,0.097121303,0.17341575605198017,45,1.5,4.393626689910889,58.53200149536133,5.299410343170166,251.1932373046875,155.1999969482422,-86.9101043,40.4247103,9.900295072,0.097121303,0.17341575605198017,-50.5269091,-18.78848766,8.121783866882325,-0.02101789,0.012938991,7.042535032525442E-4,-0.008852431,-1.96E-04,-0.001028289,-4.02E-04,-1.94E-04,-5.93E-05,0.9730863241316046,0.002756414,0.009693043,0.23022042923760647,-0.017596926,-0.009827691,-2.677046706,-86.44444444,-113.6469019,7.012193865776062,-18.93830366,Garage
49,9.909099671447162,0.098189942,0.17306728689994627,45,1.5,4.393626689910889,58.53200149536133,5.299410343170166,251.1932373046875,155.1999969482422,-86.9101043,40.4247103,9.909099671447162,0.098189942,0.17306728689994627,-50.58937309,-18.8083737,8.120197863578797,-0.021041612,0.013045740548919127,7.279757331170648E-4,0.004546091,0.001069457,-5.68E-04,-4.26E-04,-8.75E-05,-3.56E-05,0.9731303893246697,0.00275784,0.009651179,0.23003584001828165,-0.017516646,-0.00980787,-2.677425716,-85.125,-113.7093658,6.991453866958619,-18.93976765,Garage
50,9.949516398235431,0.10265034849493249,0.17374099299166967,45,1.5,4.393626689910889,58.53200149536133,5.299410343170166,251.1932373046875,155.1999969482422,-86.9101043,40.4247103,9.949516398235431,0.10265034849493249,0.17374099299166967,-50.56228916,-18.82398966,8.044679865837097,-0.021015495,0.013144963322422253,7.518120009290914E-4,0.019508435,0.002453047,3.262050449848175E-4,-3.99E-04,1.1747071067265306E-5,-1.17E-05,0.9731389421683091,0.002903245,0.009649574,0.22999792818266612,-0.017447044,-0.010089458,-2.67750556,-90,-113.6820375,6.975105824,-19.01540766,Garage
51,9.957354008572773,0.1032543625791096,0.17411269464539092,45,1.5,3.986231803894043,38.68299865722656,1.886494755744934,204.49832153320312,155.1999969482422,-86.9100877,40.4246327,9.957354008572773,0.1032543625791096,0.17411269464539092,-50.51214725,-18.83887365,8.192665848731995,-0.020994167,0.013010157227009824,7.161146195976118E-4,0.003644406,7.51649508777174E-4,-2.14E-04,-3.78E-04,-1.23E-04,-4.74E-05,0.9731277817661322,0.002999377,0.009699599,0.23004182044742177,-0.017499753,-0.010300366,-2.677417109,-91.625,-113.6315298,6.962905836105347,-18.86705564,Garage
52,9.919327226657312,0.09851518,0.1739733068688402,45,1.5,3.986231803894043,38.68299865722656,1.886494755744934,204.49832153320312,155.1999969482422,-86.9100877,40.4246327,9.919327226657312,0.09851518,0.1739733068688402,-50.55033306,-18.82935766,8.133495841026306,-0.021006028,0.013069462754483362,7.04253504947913E-4,-0.017437722,-0.001599749,-4.91E-05,-3.90E-04,-6.38E-05,-5.93E-05,0.9731690090836831,0.002892577,0.009672881,0.22986980838683044,-0.01749863,-0.010077112,-2.677768911,-91.66666667,-113.6699599,6.971201839447022,-18.92634769,Garage
53,9.902687943097456,0.097702084,0.17378745568030088,45,1.5,3.986231803894043,38.68299865722656,1.886494755744934,204.49832153320312,155.1999969482422,-86.9100877,40.4246327,9.902687943097456,0.097702084,0.17378745568030088,-50.59583916,-18.86656767,8.075545825958251,-0.021065334,0.013199935016195171,8.821701777881934E-4,-0.009194893,-9.44E-04,-7.46E-05,-4.49E-04,6.671876587805528E-5,1.1861111824084254E-4,0.9732033101100366,0.002831078,0.009671834,0.2297253799669951,-0.017526346,-0.009954329,-2.678064897,-91.55555556,-113.7158317,6.933991851806641,-18.98429766,Garage
54,9.909029988409246,0.098445486,0.1738803812022348,45,1.5,3.986231803894043,38.68299865722656,1.886494755744934,204.49832153320312,155.1999969482422,-86.9100877,40.4246327,9.909029988409246,0.098445486,0.1738803812022348,-50.58290722,-18.82520973,8.114585896,-0.021006028,0.013176213,7.279757308565731E-4,0.002884883,4.670645282106492E-4,3.9706661284548563E-4,-3.90E-04,4.299654053451801E-5,-3.56E-05,0.9732435687074383,0.002806018,0.009650625,0.22955597387355509,-0.01749829,-0.009892758,-2.678412488,-84.5,-113.7028997,6.975105895996093,-18.94525759,Garage
55,9.949445816186758,0.10309844528539823,0.17384776745278102,45,1.5,3.986231803894043,38.68299865722656,1.886494755744934,204.49832153320312,155.1999969482422,-86.9100877,40.4246327,9.949445816186758,0.10309844528539823,0.17384776745278102,-50.54886906,-18.79714954,8.095431804656982,-0.021172084,0.013188074,7.872812894118714E-4,0.019836268378692925,0.002289802,4.017953444453119E-4,-5.56E-04,5.4857646707373044E-5,2.3722223648168508E-5,0.9732427290342387,0.002937993,0.009665317,0.22955725363736013,-0.017466308,-0.010156424,-2.678411741,-83.77777778,-113.6691058,7.0029218387603756,-18.96416767,Garage
56,9.959256116626332,0.10350990693256693,0.17453085739635726,45,1.5,11.158713340759277,63.29199981689453,0.2833269238471985,350.3217468261719,155.1999969482422,-86.9100841,40.424659,9.959256116626332,0.10350990693256693,0.17453085739635726,-50.53740116,-18.85192772,8.172413868904114,-0.02091114,0.013057602,7.635590651985801E-4,0.005021975,5.26551555082636E-4,4.1408055615656583E-4,-2.95E-04,-7.56E-05,0,0.9732397135021618,0.003031696,0.009684833,0.2295680114077133,-0.017461188,-0.010347977,-2.678391068,-83,-113.6580037,6.948631844520569,-18.88767363,Garage
57,9.921423828717574,0.099514125,0.17334606158501895,45,1.5,11.158713340759277,63.29199981689453,0.2833269238471985,350.3217468261719,155.1999969482422,-86.9100841,40.424659,9.921423828717574,0.099514125,0.17334606158501895,-50.52190712,-18.82423357,8.227313814163209,-0.020899279,0.012749213,7.635590623729654E-4,-0.017375853,-0.002206405,-0.001343572,-2.83E-04,-3.84E-04,0,0.9732348369163217,0.002969079,0.009726546,0.22958773316688907,-0.017570923,-0.010245593,-2.678350094,-80.66666667,-113.6421436,6.976203832626343,-18.83265162,Garage
58,9.902664730849775,0.098445485,0.1744147012534651,45,1.5,11.158713340759277,63.29199981689453,0.2833269238471985,350.3217468261719,155.1999969482422,-86.9100841,40.424659,9.902664730849775,0.098445485,0.1744147012534651,-50.49384705,-18.84350969,8.186077871322631,-0.020851834,0.012903407170862248,0.001012642,-0.010132095,-0.001141494,-9.06E-04,-2.36E-04,-2.30E-04,2.4908334830576936E-4,0.9732484128868696,0.002859158,0.009749716,0.22953059545998433,-0.017667073,-0.01004123,-2.678466267,-78.875,-113.613961,6.956683864593506,-18.8738876,Garage
59,9.905475662749948,0.098979805,0.17473993978454072,45,1.5,11.158713340759277,63.29199981689453,0.2833269238471985,350.3217468261719,155.1999969482422,-86.9100841,40.424659,9.905475662749948,0.098979805,0.17473993978454072,-50.50824318,-18.8441197,8.151063828468322,-0.020956759,0.012933516140597371,7.635590686382224E-4,6.952927662776067E-4,1.7633353574917867E-4,-0.001139075,-2.44E-04,-1.51E-04,0,0.9732533475527396,0.002819874,0.009778222,0.22950894543184683,-0.017740816,-0.009977448,-2.678510471,-82.88888889,-113.6284794,6.956683821678162,-18.9091457,Garage
60,9.946095568462482,0.10364929398576032,0.17355514353918797,45,1.5,11.158713340759277,63.29199981689453,0.2833269238471985,350.3217468261719,155.1999969482422,-86.9100841,40.424659,9.946095568462482,0.10364929398576032,0.17355514353918797,-50.51336716,-18.82411167,8.048949842453004,-0.020863695,0.012986434967193788,7.75420179283156E-4,0.020674261,0.002481464,-7.96E-04,5.7822911100443994E-5,5.930555912042127E-6,1.1861111824084254E-5,0.9732939028045506,0.002949174,0.009710767,0.22933813379806223,-0.01755196,-0.010195103,-2.678862593,-83.875,-113.6328716,6.975105824,-19.01077169,Garage
61,9.957609602548544,0.10327759399576095,0.1737874565483297,45,1.5,4.874747276306152,67.33999633789062,1.3757191896438599,310.7366943359375,155.1999969482422,-86.9101631,40.4247076,9.957609602548544,0.10327759399576095,0.1737874565483297,-50.59852325,-18.82167177,8.107387824058533,-0.02080439,0.012772934954360273,8.821701800486851E-4,0.005422314,-3.89E-04,-0.001247636,1.1712846965574235E-4,-2.08E-04,1.1861111824084254E-4,0.9732870737325798,0.003055365,0.009747047,0.22936417263688394,-0.017573625,-0.010418931,-2.67881084,-88.55555556,-113.7183934,6.977667841911316,-18.95269964,Garage
62,9.922852543951239,0.099862594,0.17281174298050334,45,1.5,4.874747276306152,67.33999633789062,1.3757191896438599,310.7366943359375,155.1999969482422,-86.9101631,40.4247076,9.922852543951239,0.099862594,0.17281174298050334,-50.56082516,-18.83008965,8.116415824890137,-0.020970445,0.012879684983381948,7.516979494186354E-4,-0.016783538,-0.002007506,-0.001817385,-4.89E-05,-1.01E-04,-1.19E-05,0.9733313385722706,0.002977585,0.009717908,0.22917846785587015,-0.017554496,-0.010250815,-2.679191099,-88.88888889,-113.6808177,6.969615821838379,-18.94367174,Garage
63,9.904215060747587,0.096426151,0.1724903008972223,45,1.5,4.874747276306152,67.33999633789062,1.3757191896438599,310.7366943359375,155.1999969482422,-86.9101631,40.4247076,9.904215060747587,0.096426151,0.1724903008972223,-50.52788521,-18.8693737,8.096529836654662,-0.021077195,0.013318546116352081,7.161146150766284E-4,-0.009315111,-0.001383448,8.803128617481121E-4,-1.56E-04,3.380416869864012E-4,-4.74E-05,0.9734562780093221,0.00282752,0.00954599,0.2286563696502482,-0.017293844,-0.009870603,-2.680260191,-88.25,-113.6483654,6.930087833404541,-18.9636797,Garage
64,9.906613905452987,0.096401132,0.17320667395313966,45,1.5,4.874747276306152,67.33999633789062,1.3757191896438599,310.7366943359375,155.1999969482422,-86.9101631,40.4247076,9.906613905452987,0.096401132,0.17320667395313966,-50.55435913,-18.85339172,8.101897916793824,-0.021053473,0.013211796087330406,7.991424023662015E-4,0.001060301,-1.80E-04,0.00180854,-1.32E-04,2.3129168056964296E-4,3.558333547225276E-5,0.9734928966725914,0.002765183,0.009532672,0.22850175780578724,-0.017297963,-0.009740395,-2.68057688,-84.44444444,-113.6742299,6.946069827079773,-18.95794573,Garage
65,9.949083634,0.10116354687121308,0.17260266174969163,45,1.5,4.874747276306152,67.33999633789062,1.3757191896438599,310.7366943359375,155.1999969482422,-86.9101631,40.4247076,9.949083634,0.10116354687121308,0.17260266174969163,-50.51300129,-18.84326563,8.196203832626344,-0.021029751,0.013318546134436015,6.212257250049378E-4,0.021365749025807797,0.00300986,6.493044999039289E-4,-1.08E-04,3.380416869864012E-4,-1.42E-04,0.9734897943376337,0.002833974,0.009549942,0.22851341774741424,-0.017300047,-0.009882433,-2.68055399,-83.75,-113.6332376,6.957415828704834,-18.86363962,Garage
66,9.960472755,0.1037654509243456,0.17367130069478046,45,1.5,3.937471628189087,30.243999481201172,0.7358455061912537,294.4751892089844,155.1999969482422,-86.9101965,40.4247128,9.960472755,0.1037654509243456,0.17367130069478046,-50.52337105,-18.8348477,8.134837822914124,-0.020970445,0.012915268296249283,6.568090599120676E-4,0.005456249,0.001975604,0.001235864,-4.89E-05,-6.52E-05,-1.07E-04,0.9734463078304402,0.003000951,0.009596055,0.22869451387414655,-0.017311655,-0.010231847,-2.680184568,-81.11111111,-113.6433637,6.966443824768066,-18.92537169,Garage
67,9.926563753665071,0.099746438,0.17374099400436993,45,1.5,3.937471628189087,30.243999481201172,0.7358455061912537,294.4751892089844,155.1999969482422,-86.9101965,40.4247128,9.926563753665071,0.099746438,0.17374099400436993,-50.57351334,-18.8285037,8.135691838264465,-0.021077195,0.013022018361438825,7.161146201627348E-4,-0.016359709,-0.001379284,-2.80E-04,-1.56E-04,4.151389138429489E-5,-4.74E-05,0.9734106011761045,0.002959782,0.009676048,0.22884363543640063,-0.017484674,-0.01019095,-2.67987842,-76.125,-113.693505,6.970103826522827,-18.9243956,Garage
68,9.907400834907605,0.097423309,0.17295113075705407,45,1.5,3.937471628189087,30.243999481201172,0.7358455061912537,294.4751892089844,155.1999969482422,-86.9101965,40.4247128,9.907400834907605,0.097423309,0.17295113075705407,-50.47432705,-18.86949577,8.164483857154845,-0.020933265,0.013238939832752714,8.105473131693613E-4,-0.009193365,-7.60E-04,3.686318030724159E-4,-1.17E-05,2.5843537878245115E-4,4.698825068771839E-5,0.9734683208740674,0.002829502,0.009594113,0.22860307776584074,-0.017387189,-0.009895513,-2.680370154,-76.55555556,-113.5938316,6.930087819099426,-18.89572563,Garage
69,9.906622599629523,0.097144534,0.17420562002265338,45,1.5,3.937471628189087,30.243999481201172,0.7358455061912537,294.4751892089844,155.1999969482422,-86.9101965,40.4247128,9.906622599629523,0.097144534,0.17420562002265338,-50.54728313,-18.83923973,8.204987816810608,-0.021006028,0.013188074,7.042535066432816E-4,-0.0011549,-2.61E-04,0.001383155,-8.45E-05,2.0756945692147446E-4,-5.93E-05,0.9734659304896605,0.002794341,0.009607264,0.2286131338587085,-0.017428765,-0.009833246,-2.680349123,-75.25,-113.6676414,6.9609538316726685,-18.85497765,Garage
70,9.946667578613873,0.10211602916705956,0.17422885151164044,45,1.5,3.937471628189087,30.243999481201172,0.7358455061912537,294.4751892089844,155.1999969482422,-86.9101965,40.4247128,9.946667578613873,0.10211602916705956,0.17422885151164044,-50.49067532,-18.79409966,8.134959884,-0.021041612,0.013105046121602498,5.975035007916463E-4,0.020302837334790276,0.00326465,0.001074554,-1.20E-04,1.2454167415288468E-4,-1.66E-04,0.9734506664924252,0.002855663,0.009622487,0.22867672116432375,-0.017429722,-0.00996074,-2.680219477,-77.22222222,-113.6103017,7.004873857498169,-18.92524965,Garage
71,9.961163947,0.10357960067617084,0.17429854511057288,45,1.5,4.275237083435059,37.400001525878906,0.9122136235237122,104.36917877197266,155.1999969482422,-86.9101349,40.4247001,9.961163947,0.10357960067617084,0.17429854511057288,-50.45358707,-18.78787767,8.104947834014892,-0.021100917,0.013152490541772935,8.347257344477168E-4,0.006891593,0.001208544,6.627282760675672E-4,-1.79E-04,1.719861214492217E-4,7.116667094450552E-5,0.9734122284407755,0.003012721,0.009660095,0.2288366932313419,-0.017429471,-0.010286592,-2.67989323,-82.25,-113.5738239,7.01182786,-18.95501764,Garage
72,9.930636709,0.099992377,0.1738477684557438,45,1.5,4.275237083435059,37.400001525878906,0.9122136235237122,104.36917877197266,155.1999969482422,-86.9101349,40.4247001,9.930636709,0.099992377,0.1738477684557438,-50.52812916,-18.83814169,8.124589862823486,-0.021065334,0.013069462763525328,7.0425350438279E-4,-0.014653289,-0.001446397,2.177997121533144E-4,-1.44E-04,8.89583386806319E-5,-5.93E-05,0.9734184915579639,0.002970324,0.009658029,0.2288106927304592,-0.017445113,-0.010202635,-2.679946073,-78.88888889,-113.6481215,6.962173843383789,-18.93513159,Garage
73,9.906939108394882,0.097028377,0.17374099313634114,45,1.5,4.275237083435059,37.400001525878906,0.9122136235237122,104.36917877197266,155.1999969482422,-86.9101349,40.4247001,9.906939108394882,0.097028377,0.17374099313634114,-50.5277631,-18.8169136,8.139473848342895,-0.02112464,0.013093184969089563,6.80531284125359E-4,-0.011351539,-9.47E-04,4.4743181432335124E-4,-2.03E-04,1.1268056232880041E-4,-8.30E-05,0.9734505901058901,0.002813069,0.009632888,0.228677135,-0.017469447,-0.009882573,-2.680218136,-80.75,-113.6471458,6.982181854248047,-18.92049168,Garage
74,9.906242250238808,0.097051608,0.17374099342568408,45,1.5,4.275237083435059,37.400001525878906,0.9122136235237122,104.36917877197266,155.1999969482422,-86.9101349,40.4247001,9.906242250238808,0.097051608,0.17374099342568408,-50.53508324,-18.83862963,8.116659893989564,-0.020982306,0.012891546072601115,6.330868345685303E-4,-0.00194382,2.56372886954002E-4,-3.08E-04,-6.08E-05,-8.90E-05,-1.30E-04,0.9734489113381766,0.002751528,0.009651003,0.22868429500501133,-0.017532787,-0.009771167,-2.680202769,-78.66666667,-113.6550755,6.962051858901978,-18.94391573,Garage
75,9.944957168356886,0.10220895454432201,0.1727188171692265,45,1.5,4.275237083435059,37.400001525878906,0.9122136235237122,104.36917877197266,155.1999969482422,-86.9101349,40.4247001,9.944957168356886,0.10220895454432201,0.1727188171692265,-50.47542511,-18.88572172,8.166923857,-0.02123139,0.013484601718057128,3.8400349021862145E-4,0.02023158,0.00469826,6.492359256281436E-4,-3.10E-04,5.040972525235808E-4,-3.80E-04,0.9734900344922705,0.002796408,0.009559398,0.22851241980362863,-0.01733564,-0.009813605,-2.680555621,-80.875,-113.5965157,6.914105820655823,-18.89316368,Garage
76,9.964436614,0.10474116507085782,0.17246327324978356,45,1.5,2.6591274738311768,55.97399902,2.1357004642486572,272.6811218261719,155.1999969482422,-86.9102952,40.4247075,9.964436614,0.10474116507085782,0.17246327324978356,-50.48591702,-18.87217962,8.124345846176148,-0.02127393,0.013274181025246015,6.578355029117889E-4,0.009578072,0.002758823,0.002129157,-3.52E-04,2.9367656679823995E-4,-1.06E-04,0.9734950610078298,0.003038352,0.009491294,0.2284907602633421,-0.0170927,-0.010253178,-2.680602661,-81.66666667,-113.6062757,6.927647852897644,-18.93549767,Garage
77,9.931991179012558,0.10102415866064794,0.1738803812022348,45,1.5,2.6591274738311768,55.97399902,2.1357004642486572,272.6811218261719,155.1999969482422,-86.9102952,40.4247075,9.931991179012558,0.10102415866064794,0.1738803812022348,-50.53081287,-18.84997562,8.226825819015502,-0.021183945,0.013259240616004444,6.805312858207278E-4,-0.015917547,-0.001409884,0.001486753,-2.62E-04,2.7873612786598E-4,-8.30E-05,0.9734374701398091,0.003032916,0.009605704,0.22873132480579672,-0.017315439,-0.010299143,-2.680109462,-79.625,-113.6511716,6.9500958395004275,-18.83313963,Garage
78,9.908007834721538,0.099467662,0.173624837,45,1.5,2.6591274738311768,55.97399902,2.1357004642486572,272.6811218261719,155.1999969482422,-86.9102952,40.4247075,9.908007834721538,0.099467662,0.173624837,-50.58010105,-18.77335968,8.171803837,-0.021136501,0.013282962848694579,7.279757314216961E-4,-0.012166718,-5.44E-05,0.001475157,-2.15E-04,3.024583515141485E-4,-3.56E-05,0.9734631886760008,0.002902388,0.009586661,0.22862434184666977,-0.017339152,-0.010034392,-2.680327371,-80.22222222,-113.6999715,7.026833858,-18.88828365,Garage
79,9.907798758,0.098608105,0.17413592541102066,45,1.5,2.6591274738311768,55.97399902,2.1357004642486572,272.6811218261719,155.1999969482422,-86.9102952,40.4247075,9.907798758,0.098608105,0.17413592541102066,-50.52154118,-18.78397371,8.177659840583802,-0.021207667,0.013176212810630937,5.61920169275254E-4,-0.001886451,4.180917896113349E-4,0.001633729,-2.86E-04,1.957083450973902E-4,-2.02E-04,0.9734651654669382,0.002836043,0.009598743,0.22861624849074094,-0.017393084,-0.009910598,-2.680343204,-80.22222222,-113.6415336,7.014999871253967,-18.88254972,Garage
80,9.941675787990533,0.10283619939412886,0.1737642250593426,45,1.5,2.6591274738311768,55.97399902,2.1357004642486572,272.6811218261719,155.1999969482422,-86.9102952,40.4247075,9.941675787990533,0.10283619939412886,0.1737642250593426,-50.53313122,-18.78104576,8.109949851036072,-0.021195806,0.013354129402093518,6.805312812997444E-4,0.018718913920874734,0.003126784,0.001737092,-2.74E-04,3.73625022458654E-4,-8.30E-05,0.9734652441682168,0.002912336,0.009580225,0.22861572420134127,-0.01732216,-0.010050666,-2.680345142,-80.875,-113.6534898,7.0184158611297605,-18.95001553,Garage
81,9.964041462311378,0.10537622790210523,0.17430792691615912,45,1.5,7.2946882247924805,56.38499832,1.4464436769485474,112.17149353027344,155.1999969482422,-86.9101462,40.4246722,9.964041462311378,0.10537622790210523,0.17430792691615912,-50.53215523,-18.8217938,8.130079879760743,-0.021160223,0.013223657257927275,7.516979539396187E-4,0.010479455,0.001589677,0.001612787,-2.39E-04,2.4315279239372722E-4,-1.19E-05,0.9734180407616698,0.003093233,0.009629282,0.2288122125042295,-0.017332905,-0.010428803,-2.679944298,-80.66666667,-113.652636,6.9771798849105835,-18.92964161,Garage
82,9.934767361983512,0.1008847713181116,0.1756459590300773,45,1.5,7.2946882247924805,56.38499832,1.4464436769485474,112.17149353027344,155.1999969482422,-86.9101462,40.4246722,9.934767361983512,0.1008847713181116,0.1756459590300773,-50.52837318,-18.80276161,8.187541875839234,-0.02101789,0.013010157217967857,8.228646214933867E-4,-0.014453351,-0.002201817,9.881940860192752E-4,-9.64E-05,2.9652779560210635E-5,5.930555912042127E-5,0.9733756109348779,0.003039956,0.009725319,0.22898927359905058,-0.017542385,-0.010372216,-2.679580721,-78.375,-113.6488531,6.997187862,-18.87291168,Garage
83,9.909962117093281,0.097887935,0.174228851,45,1.5,7.2946882247924805,56.38499832,1.4464436769485474,112.17149353027344,155.1999969482422,-86.9101462,40.4246722,9.909962117093281,0.097887935,0.174228851,-50.571073,-18.8186216,8.143499884605408,-0.020958584,0.013199935025237138,7.872812865862568E-4,-0.012457542,-0.001783621,3.5207783712924105E-4,-3.71E-05,2.194305687455587E-4,2.3722223648168508E-5,0.9734192762560058,0.002889947,0.009675852,0.22880762482731087,-0.017516613,-0.010054249,-2.679951471,-80.55555556,-113.69009,6.981693863868713,-18.91670963,Garage
84,9.906660413279116,0.098306098,0.17269558553556794,45,1.5,7.2946882247924805,56.38499832,1.4464436769485474,112.17149353027344,155.1999969482422,-86.9101462,40.4246722,9.906660413279116,0.098306098,0.17269558553556794,-50.56741337,-18.80178566,8.157895941734314,-0.020934862,0.013045740548919127,6.568090633028051E-4,-0.00269113,7.670923922825785E-4,-5.01E-04,-1.33E-05,6.52361150324634E-5,-1.07E-04,0.973455985,0.002790325,0.009627771,0.22865467149655797,-0.017470115,-0.009835549,-2.680263927,-78.375,-113.6874058,6.997797865867614,-18.90206964,Garage
85,9.941548014150083,0.10232511119356433,0.17306728689994627,45,1.5,7.2946882247924805,56.38499832,1.4464436769485474,112.17149353027344,155.1999969482422,-86.9101462,40.4246722,9.941548014150083,0.10232511119356433,0.17306728689994627,-50.48628315,-18.85985762,8.105313787460327,-0.0211917,0.013309422208784292,6.460884391204813E-4,0.017925775968111478,0.002905454,0.001157161,-2.70E-04,3.289177570527849E-4,-1.17E-04,0.973474767,0.002899537,0.009564597,0.22857598731150994,-0.017297982,-0.010017896,-2.680426453,-76.44444444,-113.60591,6.939359822273254,-18.95477365,Garage
86,9.966797550905097,0.10555425995183222,0.17492578938169387,45,1.5,3.7647807598114014,57.97100067138672,0.20782285928726196,300.8562927246094,155.1999969482422,-86.9101785,40.4246841,9.966797550905097,0.10555425995183222,0.17492578938169387,-50.50214321,-18.81618172,8.045533838272094,-0.021160223,0.013330407250781082,6.568090559562072E-4,0.012444801700925365,0.002252942,0.002381587,-2.39E-04,3.499027988104855E-4,-1.07E-04,0.973426906,0.003071381,0.009617152,0.22877527512971638,-0.017319673,-0.010380054,-2.680019779,-71.625,-113.6226237,6.983767848014832,-19.01479765,Garage
87,9.936965655354621,0.10181402205263526,0.17527425896774218,45,1.5,3.7647807598114014,57.97100067138672,0.20782285928726196,300.8562927246094,155.1999969482422,-86.9101785,40.4246841,9.936965655354621,0.10181402205263526,0.17527425896774218,-50.42894318,-18.8414357,8.091161847114563,-0.020982306,0.012998296,7.398368449411491E-4,-0.014769702,-0.00129291,9.294981227337735E-4,-6.08E-05,1.779166773612638E-5,-2.37E-05,0.9733854879453344,0.003040098,0.009705931,0.22894811905124812,-0.01750501,-0.010362874,-2.679665103,-71.77777778,-113.5485698,6.958025837,-18.96868172,Garage
88,9.910929152109091,0.098863649,0.1765984418322739,45,1.5,3.7647807598114014,57.97100067138672,0.20782285928726196,300.8562927246094,155.1999969482422,-86.9101785,40.4246841,9.910929152109091,0.098863649,0.1765984418322739,-50.41198513,-18.8398497,8.078473830223084,-0.02112464,0.013282962785400813,6.568090616074363E-4,-0.01220842,-6.50E-04,0.001941429,-2.03E-04,3.024583515141485E-4,-1.07E-04,0.9734056476250436,0.00286979,0.009707457,0.2288645236816221,-0.017586788,-0.010030497,-2.679834586,-65.22222222,-113.5317333,6.960831880569458,-18.98136971,Garage
89,9.905374086820162,0.098887997,0.17495214738524878,45,1.5,3.7647807598114014,57.97100067138672,0.20782285928726196,300.8562927246094,155.1999969482422,-86.9101785,40.4246841,9.905374086820162,0.098887997,0.17495214738524878,-50.25314098,-18.76213564,7.864729848,-0.021065334,0.013164351649076035,8.703090625733716E-4,-0.003470754,-2.77E-04,2.955257603265707E-4,-1.44E-04,1.8384723553379763E-4,1.0675000641675828E-4,0.9734056215841793,0.002849777,0.009712321,0.22886466473630332,-0.017605416,-0.009993763,-2.679834077,-56.25,-113.3731341,7.036959881782532,-19.19547964,Garage
90,9.934395651215489,0.099769669,0.17232388518388989,45,1.5,3.7647807598114014,57.97100067138672,0.20782285928726196,300.8562927246094,155.1999969482422,-86.9101785,40.4246841,9.934395651215489,0.099769669,0.17232388518388989,-49.98047115,-18.66087566,7.771033844947815,-0.021136501,0.013045741,6.330868351336532E-4,0.016588035139065344,3.0529636491849585E-4,-7.10E-04,-2.15E-04,6.52361150324634E-5,-1.30E-04,0.9734378810067779,0.002888181,0.009639772,0.2287300184224416,-0.017447973,-0.010032912,-2.680110554,-58.22222222,-113.1002197,7.139073901176452,-19.28893167,Garage
91,9.963934278,0.1044856211514149,0.17487932741641998,45,1.5,8.478550910949707,61.332000732421875,1.159254789352417,87.29447174072266,155.1999969482422,-86.9100876,40.424686,9.963934278,0.1044856211514149,0.17487932741641998,-50.49823902,-18.40906771,8.500593786239625,-0.020982306,0.013057601629096327,7.516979511140041E-4,0.012704552955997801,0.003049473,8.01575125999821E-4,-6.08E-05,7.709722685654765E-5,-1.19E-05,0.9734136334900717,0.002974613,0.009666509,0.22883091432955657,-0.017459444,-0.010215234,-2.67990466,-63.25,-113.6178659,7.390881857872009,-18.55961567,Garage
92,9.939709857829566,0.10283619946646459,0.17411269435604798,45,1.5,8.478550910949707,61.332000732421875,1.159254789352417,87.29447174072266,155.1999969482422,-86.9100876,40.424686,9.939709857829566,0.10283619946646459,0.17411269435604798,-50.6794091,-18.67429565,8.590263853,-0.020970445,0.013057601692390095,7.872812865862568E-4,-0.012917676,-8.03E-04,2.0406952182066093E-4,-4.89E-05,7.709722685654765E-5,2.3722223648168508E-5,0.9733860139707917,0.003065019,0.009698879,0.2289458443817583,-0.017479895,-0.010408119,-2.679670035,-68.44444444,-113.8004995,7.125287866592407,-18.46957962,Garage
93,9.910069502673103,0.099676744,0.17532072194571635,45,1.5,8.478550910949707,61.332000732421875,1.159254789352417,87.29447174072266,155.1999969482422,-86.9100876,40.424686,9.910069502673103,0.099676744,0.17532072194571635,-50.5799791,-18.86498167,8.361025844,-0.021062483,0.013015745610643465,6.460884380011031E-4,-0.01337498,-9.61E-04,4.501405816811782E-4,-1.41E-04,3.5241188015788794E-5,-1.17E-04,0.9733895183755801,0.002923516,0.009726144,0.2289316373375746,-0.017597896,-0.01014486,-2.679697605,-71.5,-113.7003377,6.934479832649231,-18.69942762,Garage
94,9.906082486643374,0.098933343,0.17550657168754097,45,1.5,8.478550910949707,61.332000732421875,1.159254789352417,87.29447174072266,155.1999969482422,-86.9100876,40.424686,9.906082486643374,0.098933343,0.17550657168754097,-50.56729092,-18.81752375,8.175097846984864,-0.020982306,0.012784796079747307,9.177535172163066E-4,-0.003214244,-5.17E-04,-5.24E-04,-6.08E-05,-1.96E-04,1.541944537130953E-4,0.9733665446633274,0.002853183,0.009788144,0.22902754180639692,-0.017749815,-0.010038071,-2.679500172,-67.33333333,-113.687406,6.981815848350525,-18.88474573,Garage
95,9.935200015318047,0.10209279811208688,0.1751348714805344,45,1.5,8.478550910949707,61.332000732421875,1.159254789352417,87.29447174072266,155.1999969482422,-86.9100876,40.424686,9.935200015318047,0.10209279811208688,0.1751348714805344,-50.52629921,-18.82374565,8.099457840919495,-0.021041612,0.013045740503709293,7.042535072084046E-4,0.017021669924837873,0.001980318,-6.49E-04,-1.20E-04,6.523611729295509E-5,-5.93E-05,0.9733691805774726,0.002886167,0.009775028,0.22901648543413403,-0.017709294,-0.010096078,-2.679523216,-67.125,-113.6466576,6.975959844589234,-18.96038567,Garage
96,9.96559818,0.10520579051045538,0.17469347680656655,0,1.5,4.214885234832764,45.4640007,0.091812573,0,155.1999969482422,-86.9101005,40.4246828,9.96559818,0.10520579051045538,0.17469347680656655,-50.56009335,-18.76799175,8.176317811012268,-0.020899279,0.013010157217967857,9.651979594265373E-4,0.013855276755916262,0.001525856,1.7373683383163895E-4,2.2239564325732803E-5,2.9652779560210635E-5,2.0163890100943232E-4,0.9733744917564022,0.003065766,0.009721279,0.2289938612759692,-0.017522649,-0.010420692,-2.679571608,-71.33333333,-113.6797196,7.031835894584656,-18.88364756,Garage
97,9.942311703580097,0.10344021282728436,0.17453085783037167,0,1.5,4.214885234832764,45.4640007,0.091812573,0,155.1999969482422,-86.9101005,40.4246828,9.942311703580097,0.10344021282728436,0.17453085783037167,-50.54984516,-18.8149617,8.112023835,-0.020970445,0.012927129430678284,8.703090687897237E-4,-0.012261743,-0.001905977,-0.001057517,-4.89E-05,-5.34E-05,1.0675000641675828E-4,0.9733310312900728,0.003132172,0.009790364,0.2291746703745092,-0.017624795,-0.010584889,-2.679201642,-76.125,-113.6703259,6.985719866752625,-18.94794168,Garage
98,9.909308424,0.099417179,0.17389378438775355,0,1.5,4.214885234832764,45.4640007,0.091812573,0,155.1999969482422,-86.9101005,40.4246828,9.909308424,0.099417179,0.17389378438775355,-50.56631512,-18.80617767,8.149843869,-0.02112464,0.012808518285311541,8.110035113646712E-4,-0.01579306,-0.001930953,-0.001085851,-2.03E-04,-1.72E-04,4.7444447296337016E-5,0.9733750982191957,0.002957127,0.009746314,0.228991658,-0.017621154,-0.010220616,-2.679574918,-75.33333333,-113.6869178,6.994259858131409,-18.91048761,Garage
99,9.904616013,0.099142424,0.17497225192565363,0,1.5,4.214885234832764,45.4640007,0.091812573,0,155.1999969482422,-86.9101005,40.4246828,9.904616013,0.099142424,0.17497225192565363,-50.56363121,-18.74578772,8.181563863754272,-0.021089056,0.012772934918192405,7.991424018010786E-4,-0.003808142,-4.26E-04,-7.56E-04,-1.68E-04,-2.08E-04,3.558333547225276E-5,0.973377436,0.002862304,0.009764592,0.22898214172969744,-0.017700251,-0.010044211,-2.679593364,-80.44444444,-113.6836235,7.055503878593445,-18.87815765,Garage
100,9.929763942088895,0.10062922710932574,0.17511164028089024,0,1.5,4.214885234832764,45.4640007,0.091812573,0,155.1999969482422,-86.9101005,40.4246828,9.929763942088895,0.10062922710932574,0.17511164028089024,-50.50482716,-18.76542963,8.156065831184387,-0.02112464,0.013164352,8.703090682246008E-4,0.014629493639307115,7.535818132381995E-4,1.5085921125504578E-4,-2.03E-04,1.8384723327330595E-4,1.0675000641675828E-4,0.9733877396120608,0.002881017,0.009739881,0.22893916142797008,-0.017644017,-0.010068548,-2.679681695,-82,-113.6250637,7.034885869026184,-18.90377769,Garage
101,9.963019556212194,0.10399776364414437,0.17480963309413022,0,1.5,4.214885234832764,45.4640007,0.091812573,0,155.1999969482422,-86.9101005,40.4246828,9.963019556212194,0.10399776364414437,0.17480963309413022,-50.52983715,-18.78458357,8.113853831291198,-0.021148362,0.013105046094476599,6.568090610423134E-4,0.015929601724865367,0.00151357,6.738449763325812E-5,-2.27E-04,1.2454167415288468E-4,-1.07E-04,0.9733820615462887,0.003004456,0.009721245,0.2289625022885869,-0.017550987,-0.010300754,-2.679635222,-81.44444444,-113.6490976,7.015243854522705,-18.94635569,Garage
102,9.946063579,0.10213926094538957,0.1732531370757853,45,1.5,9.419798851013184,59.797000885009766,0.11816249787807465,95.28667449951172,155.1999969482422,-86.9100931,40.4246826,9.946063579,0.10213926094538957,0.1732531370757853,-50.56887737,-18.81703564,8.085427870750427,-0.020968506,0.012898274992879193,6.343413775679297E-4,-0.008593385,-2.57E-04,-8.31E-04,-4.70E-05,-8.22E-05,-1.29E-04,0.9733992568575419,0.003011427,0.009685847,0.22889079783971494,-0.017479631,-0.010296829,-2.679782292,-82.125,-113.6888692,6.983645839691162,-18.97478172,Garage
103,9.911829346591986,0.097469772,0.1733228312534036,45,1.5,9.419798851013184,59.797000885009766,0.11816249787807465,95.28667449951172,155.1999969482422,-86.9100931,40.4246826,9.911829346591986,0.097469772,0.1733228312534036,-50.50934116,-18.81618168,8.112145857810974,-0.02112464,0.013010157217967857,6.923923959494433E-4,-0.015450144,-0.001358712,5.983221299439958E-5,-2.03E-04,2.9652779560210635E-5,-7.12E-05,0.9734489472167006,0.002852829,0.009626554,0.2286839146637222,-0.017438872,-0.009957208,-2.680204685,-85.66666667,-113.6289677,6.984987845420838,-18.94794168,Garage
104,9.906291591310964,0.097609159,0.17306728661060333,45,1.5,9.419798851013184,59.797000885009766,0.11816249787807465,95.28667449951172,155.1999969482422,-86.9100931,40.4246826,9.906291591310964,0.097609159,0.17306728661060333,-50.57400105,-18.79019562,8.124345846176148,-0.020982306,0.013057601656222228,9.889201847700746E-4,-0.004902571,-6.54E-04,-1.51E-04,-6.08E-05,7.709722685654765E-5,2.2536112465760082E-4,0.9734482146003871,0.002830221,0.009633433,0.22868702336422447,-0.017462572,-0.009916394,-2.680198051,-85.25,-113.6948476,7.010363879203797,-18.93537571,Garage
105,9.925649115182821,0.099560588,0.17439147,45,1.5,9.419798851013184,59.797000885009766,0.11816249787807465,95.28667449951172,155.1999969482422,-86.9100931,40.4246826,9.925649115182821,0.099560588,0.17439147,-50.53032516,-18.78409567,8.094089870452882,-0.021077195,0.013081323843702529,6.568090587818217E-4,0.011662594323019379,0.001592483,0.001069291,-1.56E-04,1.0081945050471616E-4,-1.07E-04,0.9734506977414622,0.002813881,0.009632476,0.2286766731333964,-0.017468275,-0.009883964,-2.680219076,-83.55555556,-113.6501955,7.016463856697083,-18.96587561,Garage
106,9.961424286548908,0.10411079328220624,0.17403183175394168,45,1.5,9.419798851013184,59.797000885009766,0.11816249787807465,95.28667449951172,155.1999969482422,-86.9100931,40.4246826,9.961424286548908,0.10411079328220624,0.17403183175394168,-50.60181717,-18.78848763,8.116293835639954,-0.02101789,0.013033879423532093,7.398368409852886E-4,0.015949157,0.002195218,-3.13E-04,-9.64E-05,5.337500320837914E-5,-2.37E-05,0.9733978816606466,0.002991638,0.00969332,0.22889659633335557,-0.017503175,-0.010261827,-2.679770192,-80,-113.7218099,7.0119498825073245,-18.94379368,Garage
107,9.948064350387424,0.10223218603330908,0.1738803817809207,45,1.5,5.083912372589111,37.64899826049805,6.991539478302002,295.84942626953125,155.1999969482422,-86.9105711,40.4248583,9.948064350387424,0.10223218603330908,0.1738803817809207,-50.53654709,-18.79983366,8.166679849624634,-0.020982306,0.012879684992423914,7.991424006708327E-4,-0.006914722,-9.49E-04,-2.08E-04,-6.08E-05,-1.01E-04,3.558333547225276E-5,0.9733890642240209,0.003037665,0.009699511,0.22893323336990135,-0.017493781,-0.010354927,-2.67969559,-80.375,-113.6564175,6.9990178489685055,-18.89365162,Garage
108,9.911149747163346,0.097469772,0.17453085840905755,45,1.5,5.083912372589111,37.64899826049805,6.991539478302002,295.84942626953125,155.1999969482422,-86.9105711,40.4248583,9.911149747163346,0.097469772,0.17453085840905755,-50.56155708,-18.80202974,8.013081855773926,-0.021065334,0.013081323906996296,7.27975731986819E-4,-0.016761141,-0.002100325,1.660311974368049E-4,-1.44E-04,1.0081945050471616E-4,-3.56E-05,0.9734165489094929,0.002877065,0.009684315,0.2288190447589726,-0.01753887,-0.010033246,-2.679927914,-81.66666667,-113.6810617,6.997431864738465,-19.04700573,Garage
109,9.904917948,0.09798086,0.173833919,45,1.5,5.083912372589111,37.64899826049805,6.991539478302002,295.84942626953125,155.1999969482422,-86.9105711,40.4248583,9.904917948,0.09798086,0.173833919,-50.52495728,-18.77238369,8.128005843162537,-0.020982306,0.013010157172758025,8.110035102344254E-4,-0.004802695,1.835159740401703E-4,-1.98E-04,-6.08E-05,2.9652779560210635E-5,4.7444447296337016E-5,0.9734309882793611,0.002796338,0.009675404,0.2287589732593703,-0.017559055,-0.009870919,-2.680050153,-83.125,-113.6450716,7.027931866645813,-18.93171558,Garage
110,9.922916422,0.099653513,0.17420561973331045,45,1.5,5.083912372589111,37.64899826049805,6.991539478302002,295.84942626953125,155.1999969482422,-86.9105711,40.4248583,9.922916422,0.099653513,0.17420561973331045,-50.5075111,-18.80178574,8.113853850364684,-0.021100917,0.013140629479679668,6.449479526089667E-4,0.010986494786531022,0.001494634,5.466903297646532E-4,-1.79E-04,1.6012500962513744E-4,-1.19E-04,0.9734427489123298,0.002820212,0.009646573,0.22870985657266044,-0.0174925,-0.009903325,-2.680151129,-79,-113.6275038,6.998651881217956,-18.94598972,Garage
111,9.960888084856052,0.10357960045916363,0.17364806891645043,45,1.5,5.083912372589111,37.64899826049805,6.991539478302002,295.84942626953125,155.1999969482422,-86.9105711,40.4248583,9.960888084856052,0.10357960045916363,0.17364806891645043,-50.39819916,-19.04273565,8.114951868,-0.021144712,0.013062733897151282,7.518120009290914E-4,0.017287887059725247,0.002312635,4.7730281949043274E-5,-2.23E-04,8.222943870350718E-5,-1.17E-05,0.9734194593933913,0.00296232,0.009658062,0.22880668178773844,-0.017448883,-0.010186995,-2.679954199,-78.625,-113.5180697,6.7570918798446655,-18.94489168,Garage
112,9.949896692072304,0.10320790010748558,0.17376422520401408,45,1.5,11.243962287902832,59.49300003051758,5.212652206420898,114.68473815917969,155.1999969482422,-86.9101924,40.4247248,9.949896692072304,0.10320790010748558,0.17376422520401408,-50.56058113,-18.71882566,8.163629799,-0.020934862,0.012950851591032686,9.058924031317306E-4,-0.005805599,-5.19E-04,-1.12E-04,-1.33E-05,-2.97E-05,1.4233334188901105E-4,0.9733912667024482,0.003074899,0.009686196,0.2289239116085386,-0.017450913,-0.010421155,-2.679715115,-80,-113.679964,7.0820998859405515,-18.8968236,Garage
113,9.912520528997032,0.098236404,0.17274204865821358,45,1.5,11.243962287902832,59.49300003051758,5.212652206420898,114.68473815917969,155.1999969482422,-86.9101924,40.4247248,9.912520528997032,0.098236404,0.17274204865821358,-50.51117104,-18.76262371,8.114585824012757,-0.02101789,0.012974573887016588,7.398368449411491E-4,-0.017223441,-0.002143505,-1.98E-04,-9.64E-05,-5.93E-06,-2.37E-05,0.9734394411438877,0.002931495,0.00962627,0.22872338581432416,-0.017401939,-0.010110947,-2.68012463,-78.625,-113.6296998,7.0378138542175295,-18.94550171,Garage
114,9.906268342027387,0.096981915,0.17327636784141504,45,1.5,11.243962287902832,59.49300003051758,5.212652206420898,114.68473815917969,155.1999969482422,-86.9101924,40.4247248,9.906268342027387,0.096981915,0.17327636784141504,-50.55582302,-18.76933357,8.053951859474182,-0.02112464,0.013116907,6.805312869509737E-4,-0.004431688,-5.10E-04,1.0311849487638011E-4,-2.03E-04,1.3640278597696893E-4,-8.30E-05,0.9734581853579549,0.002793389,0.009622707,0.2286454731399573,-0.017458942,-0.009839033,-2.680282829,-75.66666667,-113.6756935,7.030859880447387,-19.00625767,Garage
115,9.922466086,0.099693274,0.17299647614932978,45,1.5,11.243962287902832,59.49300003051758,5.212652206420898,114.68473815917969,155.1999969482422,-86.9101924,40.4247248,9.922466086,0.099693274,0.17299647614932978,-50.54520916,-18.76079369,8.113731870651245,-0.020994167,0.012950851645284487,5.026146061989723E-4,0.009361249,0.002484039,-1.56E-04,-7.26E-05,-2.97E-05,-2.61E-04,0.9734607188447008,0.002773545,0.009622511,0.2286349521967971,-0.017467739,-0.009800118,-2.680304178,-71,-113.6659336,7.039155888557434,-18.94635571,Garage
116,9.961097152487746,0.10295235553702105,0.17360160680650508,45,1.5,11.243962287902832,59.49300003051758,5.212652206420898,114.68473815917969,155.1999969482422,-86.9101924,40.4247248,9.961097152487746,0.10295235553702105,0.17360160680650508,-50.51202515,-18.76774769,8.103483829498291,-0.021065334,0.013211796,6.212257255700607E-4,0.018096692353776356,0.003347783,3.6384498031393994E-4,-1.44E-04,2.3129168056964296E-4,-1.42E-04,0.9734484142470128,0.002891893,0.009618195,0.22868603656014191,-0.017404714,-0.010029483,-2.680200753,-69.375,-113.6322617,7.032933855056763,-18.95635975,Garage
117,9.952112392,0.10021106377967352,0.17297436210136968,45,1.5,3.8103485107421875,47.15999984741211,2.3121085166931152,116.99518585205078,155.1999969482422,-86.910114,40.4246914,9.952112392,0.10021106377967352,0.17297436210136968,-50.50214306,-18.78958578,8.059563865661621,-0.021266973,0.013057601647180261,6.33086837394145E-4,-0.003876038,-8.10E-04,1.1002409805371924E-4,-3.45E-04,7.709722685654765E-5,-1.30E-04,0.973449707,0.002968674,0.009597164,0.22868043502557625,-0.017328715,-0.010169257,-2.680213095,-68.66666667,-113.6220141,7.010607900619507,-19.00052366,Garage
118,9.915383746323077,0.097190997,0.172811742,45,1.5,3.8103485107421875,47.15999984741211,2.3121085166931152,116.99518585205078,155.1999969482422,-86.910114,40.4246914,9.915383746323077,0.097190997,0.172811742,-50.49579903,-18.75871977,8.129957838058472,-0.021160223,0.013045740530835194,8.110035124949171E-4,-0.017988686,-0.001430028,7.521711217546926E-4,-2.22E-04,5.930555912042127E-5,6.37534743590841E-5,0.9734823507012673,0.002846737,0.009562402,0.22854443111465972,-0.017318166,-0.009913534,-2.680490552,-69.25,-113.616158,7.041229863166809,-18.93037367,Garage
119,9.907485026757694,0.096819296,0.17332283053004627,45,1.5,3.8103485107421875,47.15999984741211,2.3121085166931152,116.99518585205078,155.1999969482422,-86.910114,40.4246914,9.907485026757694,0.096819296,0.17332283053004627,-50.46810513,-18.76433172,8.062125854492187,-0.021109471,0.012792551,8.105473137290503E-4,-0.005311984,-4.90E-04,-7.89E-04,-3.52E-05,-2.80E-04,1.9970004639337555E-4,0.9734400688455656,0.00277144,0.009663572,0.22872114224502674,-0.017547789,-0.00981635,-2.680127435,-66.11111111,-113.5880978,7.035861892700195,-18.99759563,Garage
120,9.920660130028585,0.097539465,0.17155725385957551,45,1.5,3.8103485107421875,47.15999984741211,2.3121085166931152,116.99518585205078,155.1999969482422,-86.910114,40.4246914,9.920660130028585,0.097539465,0.17155725385957551,-50.46505516,-18.84936571,8.163995842933655,-0.021053473,0.013022018298145059,6.449479452623687E-4,0.007692633,-7.27E-05,-0.001578779,2.0756945692147444E-5,-3.56E-05,3.4100671628833687E-5,0.9734588138108115,0.002799148,0.009620076,0.22864279859853023,-0.017451216,-0.009849014,-2.680288373,-64.375,-113.5865112,6.949363827705383,-18.89596968,Garage
121,9.960327547,0.10241803606447664,0.17281174211247455,45,1.5,3.8103485107421875,47.15999984741211,2.3121085166931152,116.99518585205078,155.1999969482422,-86.910114,40.4246914,9.960327547,0.10241803606447664,0.17281174211247455,-50.29571892,-18.66563368,8.286727819,-0.020946723,0.012725490498021968,7.042535077735275E-4,0.018041944,0.002324075,-1.43E-04,1.2750695210890574E-4,-3.50E-04,9.340623922609878E-5,0.9734490236032356,0.00291419,0.009611604,0.2286833860341785,-0.017381706,-0.010069846,-2.680206447,-63.88888889,-113.4165661,7.135047888755798,-18.77323771,Garage
122,9.954423914,0.10158170969451516,0.17346221902995435,45,1.5,2.8578624725341797,40.630001068115234,0.7157285213470459,147.94842529296875,155.1999969482422,-86.9101111,40.4246678,9.954423914,0.10158170969451516,0.17346221902995435,-50.43638489,-18.68503178,8.054439826011658,-0.020970445,0.012986434976235755,9.177535132604461E-4,-0.003320555,-0.001068994,-9.39E-04,1.0378472846073723E-4,-7.12E-05,3.0690624753863197E-4,0.9733928089002961,0.003015681,0.009697467,0.2289176727961568,-0.017500024,-0.010310912,-2.679727246,-69.375,-113.5562561,7.115039920806884,-19.00540361,Garage
123,9.917220262380747,0.096679238,0.1715929932319201,45,1.5,2.8578624725341797,40.630001068115234,0.7157285213470459,147.94842529296875,155.1999969482422,-86.9101111,40.4246678,9.917220262380747,0.096679238,0.1715929932319201,-50.50116726,-18.75627966,8.130933828353882,-0.021029751,0.012844101661472644,7.991423961498494E-4,-0.017047919,-0.003260046,-0.001785804,4.447916934031595E-5,-2.16E-04,1.88295125341929E-4,0.9734328018808828,0.002902729,0.00964622,0.22875114465222776,-0.01745365,-0.010064565,-2.680067403,-70.66666667,-113.6195734,7.042815880775452,-18.92915361,Garage
124,9.907450203756683,0.09688899,0.17262589208130696,45,1.5,2.8578624725341797,40.630001068115234,0.7157285213470459,147.94842529296875,155.1999969482422,-86.9101111,40.4246678,9.907450203756683,0.09688899,0.17262589208130696,-50.49409115,-18.77104168,8.166801800727844,-0.020923001,0.012938991,7.398368404201657E-4,-0.005648539,-4.07E-04,-4.96E-04,1.5122917575707424E-4,-1.20E-04,1.2898957243785984E-4,0.9734691491404783,0.002784497,0.009603316,0.22859972961319303,-0.017425714,-0.009812035,-2.680376516,-75,-113.6140841,7.029273896217346,-18.89291956,Garage
125,9.917401952650941,0.098375792,0.1732531366417709,45,1.5,2.8578624725341797,40.630001068115234,0.7157285213470459,147.94842529296875,155.1999969482422,-86.9101111,40.4246678,9.917401952650941,0.098375792,0.1732531366417709,-50.49470123,-18.7826317,8.137521882,-0.020946723,0.012938990537981384,7.754201781529101E-4,0.006275677,0.001041346,-3.23E-04,1.2750695210890574E-4,-1.17E-04,1.6457291186597307E-4,0.9734466625648794,0.002781264,0.00964826,0.2286936099668151,-0.017513755,-0.009827974,-2.680184006,-75.66666667,-113.6148158,7.016463866233826,-18.92244373,Garage
126,9.957522429308845,0.1025341923520403,0.17306728661060333,45,1.5,2.8578624725341797,40.630001068115234,0.7157285213470459,147.94842529296875,155.1999969482422,-86.9101111,40.4246678,9.957522429308845,0.1025341923520403,0.17306728661060333,-50.47359512,-18.76152561,8.135691819,-0.021053473,0.013081323879870396,5.263368292820179E-4,0.019035163,0.001711059,-4.12E-04,2.07569445619016E-5,2.9652788037054458E-5,-8.45E-05,0.9734289507264072,0.002939297,0.009644986,0.22876714748664967,-0.017434366,-0.010135482,-2.680035001,-75.11111111,-113.5943195,7.0370818662643435,-18.92476173,Garage
127,9.95719143,0.10193017920822774,0.17281174298050334,45,1.5,7.646769046783447,73.24600219726562,7.903073787689209,85.39421081542969,155.1999969482422,-86.9095657,40.4247059,9.95719143,0.10193017920822774,0.17281174298050334,-50.52605518,-18.78336369,8.044313826560973,-0.02091114,0.012808518240101707,7.75420179283156E-4,-3.59E-04,-2.94E-04,-8.22E-04,1.630902875811585E-4,-2.68E-04,1.6457291469158767E-4,0.9734161797079067,0.003011128,0.009652728,0.22882021818924875,-0.017416028,-0.010279824,-2.679926981,-74.625,-113.6445836,7.016097860336304,-19.01601776,Garage
128,9.918665127,0.098491948,0.17248650459409917,45,1.5,7.646769046783447,73.24600219726562,7.903073787689209,85.39421081542969,155.1999969482422,-86.9095657,40.4247059,9.918665127,0.098491948,0.17248650459409917,-50.48274506,-18.76677181,8.120563864707947,-0.020956759,0.012780804348249849,8.105473148484285E-4,-0.017246356,-0.002262976,-0.00154924,1.1747062671929598E-4,-2.91E-04,1.9970004863213174E-4,0.9734113434186349,0.002931341,0.00968144,0.22884059940966275,-0.017508217,-0.010137992,-2.67988431,-66.11111111,-113.6022495,7.033665876,-18.93927963,Garage
129,9.905243243985963,0.095982969,0.17309051781024748,45,1.5,7.646769046783447,73.24600219726562,7.903073787689209,85.39421081542969,155.1999969482422,-86.9095657,40.4247059,9.905243243985963,0.095982969,0.17309051781024748,-50.48811317,-18.72846378,8.165581817626952,-0.021077195,0.012749212748796037,7.516979556349874E-4,-0.007880766,-0.001900972,-0.001423779,-2.97E-06,-3.22E-04,1.408506899131733E-4,0.9734231540300313,0.002795009,0.009691108,0.22879167118118804,-0.017589913,-0.009876104,-2.679983102,-66.375,-113.6085935,7.070997872,-18.89438366,Garage
130,9.915168845537798,0.097190996,0.17413592598970654,45,1.5,7.646769046783447,73.24600219726562,7.903073787689209,85.39421081542969,155.1999969482422,-86.9095657,40.4247059,9.915168845537798,0.097190996,0.17413592598970654,-50.51897903,-18.76335562,8.051023817062378,-0.021029751,0.013093185041425297,7.279757302914502E-4,0.005450221,4.7722249065788045E-4,-3.90E-04,4.447916934031595E-5,5.040973259895606E-5,1.1712846174402144E-4,0.9734349632726133,0.002738881,0.009681429,0.2287425070422367,-0.017597233,-0.009761514,-2.680083266,-67.88888889,-113.6393382,7.036105852127076,-19.00894163,Garage
131,9.957011399,0.10313820578519581,0.1728814360007499,45,1.5,7.646769046783447,73.24600219726562,7.903073787689209,85.39421081542969,155.1999969482422,-86.9095657,40.4247059,9.957011399,0.10313820578519581,0.1728814360007499,-50.4632251,-18.78946362,8.049681887626647,-0.021041612,0.013116907192737733,7.042535060781587E-4,0.020012429616983653,0.002170745,-4.83E-04,3.261805412549417E-5,6.52361201185697E-5,9.340623640048417E-5,0.9734261464146734,0.00295287,0.009647219,0.22877881147907775,-0.017432384,-0.010163137,-2.680011242,-73.875,-113.5837056,7.009997859001159,-19.01003962,Garage
132,9.958346981268663,0.10325950033103044,0.1728584276368985,45,1.5,6.595789432525635,57.369998931884766,3.104491710662842,264.9974060058594,155.1999969482422,-86.9099776,40.4246794,9.958346981268663,0.10325950033103044,0.1728584276368985,-50.52581081,-18.76298965,8.170461897850037,-0.021053473,0.012654323818035496,8.1100351306004E-4,8.951113061997497E-4,1.0399129784222945E-5,-8.15E-04,2.0756945692147444E-5,-4.28E-04,2.0015624846847168E-4,0.9734032721195406,0.003056421,0.009667115,0.2288739088090878,-0.017422748,-0.010375553,-2.67981742,-73.11111111,-113.6456818,7.037325873374939,-18.88950361,Garage
133,9.91984697,0.099909057,0.17211480424242112,45,1.5,6.595789432525635,57.369998931884766,3.104491710662842,264.9974060058594,155.1999969482422,-86.9099776,40.4246794,9.91984697,0.099909057,0.17211480424242112,-50.50555923,-18.77262775,8.106045889854432,-0.021136501,0.013081323879870396,7.872812877165027E-4,-0.01735441,-0.002191809,-9.05E-04,-6.23E-05,2.96527812555794E-5,1.7643402029931979E-4,0.9734205262174884,0.003007564,0.009645049,0.22880207768921712,-0.017402892,-0.010269053,-2.679964126,-78.625,-113.6249416,7.028297867774963,-18.95379776,Garage
134,9.908054286993822,0.097376846,0.17343898710695285,45,1.5,6.595789432525635,57.369998931884766,3.104491710662842,264.9974060058594,155.1999969482422,-86.9099776,40.4246794,9.908054286993822,0.097376846,0.17343898710695285,-50.51739292,-18.73651569,8.052243900299072,-0.021065334,0.013105046067350698,6.805312858207278E-4,-0.007206074,-0.00167091,6.362921693950024E-4,8.895832737817347E-6,4.892708683947047E-5,6.968401783842196E-5,0.9734505848977172,0.002881212,0.009616513,0.22867702584243516,-0.017406414,-0.010007755,-2.680219118,-78.77777778,-113.6376298,7.063189888000489,-19.00796556,Garage
135,9.914187385040579,0.097190996,0.17160371553550646,45,1.5,6.595789432525635,57.369998931884766,3.104491710662842,264.9974060058594,155.1999969482422,-86.9099776,40.4246794,9.914187385040579,0.097190996,0.17160371553550646,-50.54167114,-18.7495697,8.132641825675964,-0.021065334,0.013010157,7.872812899769944E-4,0.003232271,-3.06E-06,-8.19E-04,8.89583386806319E-6,-4.45E-05,1.7643402482030317E-4,0.9734782831182758,0.002780128,0.009586414,0.22856158264053678,-0.017395178,-0.009795123,-2.68045468,-76.11111111,-113.6632497,7.051111898422241,-18.92720171,Garage
136,9.954148070326129,0.10278973692250483,0.17306728689994627,45,1.5,6.595789432525635,57.369998931884766,3.104491710662842,264.9974060058594,155.1999969482422,-86.9099776,40.4246794,9.954148070326129,0.10278973692250483,0.17306728689994627,-50.51580719,-18.74151775,8.132275844,-0.021144712,0.012722069048322737,5.873531285592784E-4,0.019290749843303975,0.002178155,-6.82E-04,-7.05E-05,-3.45E-04,-2.35E-05,0.9734216819588954,0.002932792,0.009660801,0.22879746112112814,-0.017467811,-0.010130602,-2.679972775,-81.75,-113.6351897,7.057821907997131,-18.9278117,Garage
137,9.959862977555655,0.10272004281722226,0.17316021083049404,45,1.5,4.492850303649902,53.856998443603516,2.4998831748962402,255.3306884765625,155.1999969482422,-86.9101125,40.4246464,9.959862977555655,0.10272004281722226,0.17316021083049404,-50.46810516,-18.74895966,8.118977890014648,-0.020994167,0.012713629345509033,8.465868451415552E-4,0.002249773,-7.26E-05,-0.001514695,8.006250481256872E-5,-3.69E-04,2.3573957885461813E-4,0.9733845753577149,0.003019214,0.009712755,0.2289519817794411,-0.017527812,-0.010325409,-2.679656952,-80.88888889,-113.5890735,7.050989885,-18.94196373,Garage
138,9.921063774997748,0.098747492,0.17188249137795086,45,1.5,4.492850303649902,53.856998443603516,2.4998831748962402,255.3306884765625,155.1999969482422,-86.9101125,40.4246464,9.921063774997748,0.098747492,0.17188249137795086,-50.4934811,-18.78116764,8.079205904006958,-0.021029751,0.012938990547023351,6.44947950348475E-4,-0.018120655,-0.001969527,-0.001906536,4.447916934031595E-5,-1.19E-04,3.4100680670800427E-5,0.9734204359424924,0.00293467,0.009662789,0.2288026501542156,-0.017470763,-0.01013526,-2.679962161,-86.125,-113.6137174,7.018293871879577,-18.98063755,Garage
139,9.906776530071369,0.097493003,0.1726258919366355,45,1.5,4.492850303649902,53.856998443603516,2.4998831748962402,255.3306884765625,155.1999969482422,-86.9101125,40.4246464,9.906776530071369,0.097493003,0.1726258919366355,-50.46139488,-18.78299768,8.070787830352783,-0.021029751,0.012784796079747307,6.805312858207278E-4,-0.007757122,-0.0010816,-0.001745173,4.447916821007011E-5,-2.85E-04,6.968401783842196E-5,0.9734190598274898,0.002830034,0.009690708,0.22880866327910748,-0.017572938,-0.009944423,-2.679948661,-86,-113.58151,7.016097860336304,-18.98905571,Garage
140,9.911965847,0.096955333,0.17186908839413753,45,1.5,4.492850303649902,53.856998443603516,2.4998831748962402,255.3306884765625,155.1999969482422,-86.9101125,40.4246464,9.911965847,0.096955333,0.17186908839413753,-50.4967749,-18.76079369,8.094943848,-0.020958584,0.012737352,9.177535160860607E-4,0.002577689,-3.88E-04,-0.001613529,1.1564584028482148E-4,-3.35E-04,3.0690625262473826E-4,0.9734512810568208,0.00278125,0.009639191,0.22867432482612943,-0.017496299,-0.009823456,-2.680223532,-91.5,-113.6178658,7.039765868186951,-18.96514368,Garage
141,9.953741564334017,0.10253419249671177,0.1729743615226838,45,1.5,4.492850303649902,53.856998443603516,2.4998831748962402,255.3306884765625,155.1999969482422,-86.9101125,40.4246464,9.953741564334017,0.10253419249671177,0.1729743615226838,-50.46005295,-18.74517782,8.105191850662232,-0.021183945,0.012784796088789274,7.516979516791271E-4,0.019804297,0.001732558,-0.001319373,-1.10E-04,-2.85E-04,1.4085068200145242E-4,0.9734057784080505,0.002936127,0.009691204,0.22886380177099727,-0.017524793,-0.010152194,-2.679836813,-88.77777778,-113.579436,7.054893908500671,-18.95477364,Garage
142,9.960496013604322,0.10232511112122859,0.17262589294933578,45,1.5,4.313746929168701,56.18199920654297,0.32973945140838623,243.24136352539062,155.1999969482422,-86.9100997,40.424645,9.960496013604322,0.10232511112122859,0.17262589294933578,-50.45736916,-18.74810572,8.073471875190736,-0.020982306,0.012595018263436059,9.177535132604461E-4,0.003307676,-0.001163087,-0.002074861,9.192361663665297E-5,-4.86E-04,3.0690624697350905E-4,0.9733758568763733,0.00305401,0.009721455,0.2289882315304673,-0.017528438,-0.010397786,-2.679583024,-84.5,-113.5776057,7.052575902938843,-18.98673769,Garage
143,9.925013125521465,0.098073785,0.17109262711793474,45,1.5,4.313746929168701,56.18199920654297,0.32973945140838623,243.24136352539062,155.1999969482422,-86.9100997,40.424645,9.925013125521465,0.098073785,0.17109262711793474,-50.53398521,-18.78189974,8.090185875892638,-0.020923001,0.012725490507063935,9.414757357783688E-4,-0.016077356,-0.003405098,-0.002514115,1.5122917575707424E-4,-3.48E-04,3.306284694914317E-4,0.973416602,0.00296678,0.009662585,0.2288185725513014,-0.017455523,-0.010197964,-2.679929879,-84.11111111,-113.6542215,7.019025874137879,-18.96990173,Garage
144,9.907821960819577,0.096610214,0.17223096024064186,45,1.5,4.313746929168701,56.18199920654297,0.32973945140838623,243.24136352539062,155.1999969482422,-86.9100997,40.424645,9.907821960819577,0.096610214,0.17223096024064186,-50.52800705,-18.73749159,8.074691882133484,-0.020934862,0.012749212757838004,7.754201747621726E-4,-0.008273977,-0.001943707,-0.001614217,1.3936806393299E-4,-3.20E-04,1.6457290564962093E-4,0.973432237,0.002846529,0.009660878,0.22875366873532824,-0.017507873,-0.009961895,-2.680061595,-81.66666667,-113.6469022,7.062945890426636,-18.98502962,Garage
145,9.909192585250706,0.096494058,0.17223096024064186,45,1.5,4.313746929168701,56.18199920654297,0.32973945140838623,243.24136352539062,155.1999969482422,-86.9100997,40.424645,9.909192585250706,0.096494058,0.17223096024064186,-50.50726715,-18.7747016,8.100311861038207,-0.021003748,0.012722068985637564,8.927767507534904E-4,7.612796930166391E-4,-0.001220359,-0.001767129,7.048237603157759E-5,-3.58E-04,2.819294856565718E-4,0.9734344946650358,0.002787973,0.009670538,0.2287443671375513,-0.017553557,-0.009852145,-2.68008001,-84.25,-113.62604,7.025735855102539,-18.95953159,Garage
146,9.950442759,0.10181402263132114,0.17316021068582257,45,1.5,4.313746929168701,56.18199920654297,0.32973945140838623,243.24136352539062,155.1999969482422,-86.9100997,40.424645,9.950442759,0.10181402263132114,0.17316021068582257,-50.45724712,-18.73492971,8.050779829025268,-0.020934862,0.012832240490875776,8.228646248841242E-4,0.020183609527291604,0.002271093,-9.88E-04,1.3936806393299E-4,-2.40E-04,2.1201736085767886E-4,0.9734210684461501,0.002875745,0.00967575,0.22880017641678596,-0.017522983,-0.010026418,-2.679966584,-79.11111111,-113.5772401,7.064409890174866,-19.00955164,Garage
147,9.961709902124497,0.10274327437854508,0.17183602839997672,45,1.5,6.904692173,69.16300201416016,1.133027434,317.65899658203125,155.1999969482422,-86.9101538,40.4246959,9.961709902124497,0.10274327437854508,0.17183602839997672,-50.4445591,-18.74871574,8.116293859,-0.020958584,0.012405240465208743,9.296146262147763E-4,0.005123981,-8.34E-04,-0.00308126,1.1564584028482148E-4,-6.89E-04,3.1876736218833083E-4,0.97336898,0.003054458,0.009734821,0.22901688226797048,-0.017553951,-0.010405295,-2.679524292,-82.375,-113.5650397,7.0515998840332035,-18.94330563,Garage
148,9.925123372124236,0.098933343,0.1719521845428689,45,1.5,6.904692173,69.16300201416016,1.133027434,317.65899658203125,155.1999969482422,-86.9101538,40.4246959,9.925123372124236,0.098933343,0.1719521845428689,-50.47481514,-18.75396168,8.098237853050232,-0.021041612,0.012784796052621407,8.703090699199695E-4,-0.017000485,-0.002871819,-0.003091301,3.261805638598586E-5,-2.88E-04,2.594618047632783E-4,0.973379496,0.002970932,0.009734343,0.22897325832288243,-0.017591708,-0.010241684,-2.679612808,-84,-113.5952958,7.046109886169433,-18.96160559,Garage
149,9.905779655163105,0.096840293,0.17129389053353897,45,1.5,6.904692173,69.16300201416016,1.133027434,317.65899658203125,155.1999969482422,-86.9101538,40.4246959,9.905779655163105,0.096840293,0.17129389053353897,-50.47725506,-18.7886097,8.060295858383178,-0.020946723,0.012784796,7.516979533744957E-4,-0.010223676,-0.001897563,-0.00179765,1.2750695210890574E-4,-2.91E-04,1.4085068539218995E-4,0.9734458477751723,0.002853928,0.00963238,0.2286968591433127,-0.017449582,-0.009962244,-2.680178154,-85.5,-113.5976137,7.0108518362045285,-18.99979156,Garage
150,9.909848815029108,0.098143479,0.1716966413467833,45,1.5,6.904692173,69.16300201416016,1.133027434,317.65899658203125,155.1999969482422,-86.9101538,40.4246959,9.909848815029108,0.098143479,0.1716966413467833,-50.4871373,-18.77165171,8.100555868148804,-0.020994167,0.012713629,7.279757308565731E-4,0.001375458,7.412582635879517E-5,-0.001710175,8.006250481256872E-5,-3.65E-04,1.1712846456963605E-4,0.9734496306447149,0.00281412,0.009634525,0.2286811452178122,-0.017472118,-0.00988544,-2.680209931,-86.44444444,-113.6077395,7.029273872375488,-18.95928764,Garage
151,9.948128246566624,0.10288266193808861,0.17216126664170942,45,1.5,6.904692173,69.16300201416016,1.133027434,317.65899658203125,155.1999969482422,-86.9101538,40.4246959,9.948128246566624,0.10288266193808861,0.17216126664170942,-50.4749371,-18.73810173,8.088843846321106,-0.02101789,0.012855962723565912,7.754201764575414E-4,0.019546545824958284,0.002117031,-8.99E-04,5.634027890390852E-5,-2.15E-04,1.6457290904035846E-4,0.9734299125023258,0.002948762,0.009640813,0.2287631018937213,-0.017421949,-0.010151925,-2.680043387,-89.25,-113.5937099,7.0618478965759275,-18.97099953,Garage
152,9.961384606592864,0.10427653934191732,0.17223095966195598,45,1.5,12.447685241699219,58.119998931884766,0.5526818037033081,111.0237045288086,155.1999969482422,-86.9100986,40.4246719,9.961384606592864,0.10427653934191732,0.17223095966195598,-50.44699886,-18.73871164,8.004663863182067,-0.021065334,0.012618740469000293,7.991423989754641E-4,0.006323435,1.0466134374581494E-4,-0.001700982,8.895832737817347E-6,-4.69E-04,1.8829513099315821E-4,0.9733844144830426,0.003100995,0.009693325,0.2289523832427645,-0.017452544,-0.010475737,-2.679657019,-87.22222222,-113.5671142,7.061603870391846,-19.05517971,Garage
153,9.926566642464943,0.10021106356266633,0.17146432718026985,45,1.5,12.447685241699219,58.119998931884766,0.5526818037033081,111.0237045288086,155.1999969482422,-86.9100986,40.4246719,9.926566642464943,0.10021106356266633,0.17146432718026985,-50.43736099,-18.72492569,7.986851868629455,-0.020898024,0.012639839578276644,8.692826259693203E-4,-0.016236654,-0.002853584,-0.003030004,1.7620594007894397E-4,-4.43E-04,2.5843535975302354E-4,0.9733766770133605,0.003037276,0.009723873,0.2289848384948877,-0.017540841,-0.010366253,-2.679589785,-88.33333333,-113.5578422,7.075877904891968,-19.07311359,Garage
154,9.906915989,0.098236404,0.1717895657113455,45,1.5,12.447685241699219,58.119998931884766,0.5526818037033081,111.0237045288086,155.1999969482422,-86.9100986,40.4246719,9.906915989,0.098236404,0.1717895657113455,-50.5109272,-18.78348558,8.118123812675476,-0.020887417,0.012689907230364466,6.568090616074363E-4,-0.010260832,-0.00126519,-0.001749201,1.86812511229327E-4,-3.78E-04,4.596179192976176E-5,0.973429087,0.002884802,0.00965784,0.22876670985545927,-0.017484321,-0.010035255,-2.680035293,-87.5,-113.6314078,7.016341857910156,-18.94184168,Garage
155,9.906474631966896,0.097376846,0.17185925959962087,45,1.5,12.447685241699219,58.119998931884766,0.5526818037033081,111.0237045288086,155.1999969482422,-86.9100986,40.4246719,9.906474631966896,0.097376846,0.17185925959962087,-50.51056103,-18.76091579,8.093357844352722,-0.02091114,0.012559434896316921,7.279757291612044E-4,-0.001088365,-4.35E-04,-0.002481425,1.630902875811585E-4,-5.34E-04,1.1712845948352976E-4,0.9734251528110319,0.002795198,0.009687143,0.22878334041938042,-0.017582191,-0.009874509,-2.680000194,-87.11111111,-113.6310418,7.039765872955322,-18.96660765,Garage
156,9.945032693807361,0.10218572334467786,0.1724168107058238,45,1.5,12.447685241699219,58.119998931884766,0.5526818037033081,111.0237045288086,155.1999969482422,-86.9100986,40.4246719,9.945032693807361,0.10218572334467786,0.1724168107058238,-50.46359108,-18.75322973,8.080913877487182,-0.02101789,0.012891546099727015,6.568090582166989E-4,0.020486090947123406,0.002014906,-0.001822113,5.634027777366268E-5,-1.66E-04,4.596178627853255E-5,0.9734084287893425,0.00290664,0.009693118,0.2288528308995719,-0.017542131,-0.010095462,-2.679858967,-87.875,-113.5837057,7.045621867179871,-18.9792956,Garage
157,9.962172068082369,0.10277633390461023,0.17205315212217662,45,1.5,7.180511951446533,62.31999969482422,0.7697405815124512,300.4765930175781,155.1999969482422,-86.9101556,40.4246962,9.962172068082369,0.10277633390461023,0.17205315212217662,-50.50690105,-18.71638569,8.042605895996093,-0.020780667,0.012915268296249283,8.584479558353936E-4,0.008467156,9.54579959795313E-5,-8.59E-04,2.9356251651583946E-4,-1.48E-04,2.4760068898333366E-4,0.9734272580702328,0.003038373,0.009624436,0.22877394342885435,-0.017348967,-0.010319095,-2.680022168,-88.11111111,-113.6265281,7.084051885604858,-19.01735958,Garage
158,9.929691268402395,0.1003969140278483,0.17285820480110575,45,1.5,7.180511951446533,62.31999969482422,0.7697405815124512,300.4765930175781,155.1999969482422,-86.9101556,40.4246962,9.929691268402395,0.1003969140278483,0.17285820480110575,-50.51178108,-18.77604364,8.106655807495118,-0.020970445,0.012796657,7.635590640683342E-4,-0.016384773,-0.002196381,-8.53E-04,1.0378472846073723E-4,-2.77E-04,1.5271179552090545E-4,0.9734002889938724,0.003022948,0.009681043,0.22888644820856816,-0.017465058,-0.010316984,-2.679791323,-90.5,-113.631896,7.0236619,-18.95343172,Garage
159,9.906033136312244,0.098120247,0.1724400420501394,45,1.5,7.180511951446533,62.31999969482422,0.7697405815124512,300.4765930175781,155.1999969482422,-86.9101556,40.4246962,9.906033136312244,0.098120247,0.1724400420501394,-50.4717651,-18.73407568,8.171681809425355,-0.020970445,0.012820379374530708,7.872812888467485E-4,-0.011345512,-0.001458437,-0.001865814,1.0378472846073723E-4,-2.54E-04,1.7643402199468857E-4,0.9734118239393512,0.002884852,0.009691709,0.22883873078429584,-0.017549502,-0.010052147,-2.679887644,-85.22222222,-113.5929776,7.064775896072388,-18.88889364,Garage
160,9.907519951607417,0.097144533,0.17188249079926501,45,1.5,7.180511951446533,62.31999969482422,0.7697405815124512,300.4765930175781,155.1999969482422,-86.9101556,40.4246962,9.907519951607417,0.097144533,0.17188249079926501,-50.52312714,-18.74578777,8.047119855880737,-0.020851834,0.012891546081643081,7.754201787180331E-4,-6.17E-04,-9.41E-04,-0.001173139,2.2239584670157977E-4,-1.72E-04,1.6457291356134182E-4,0.9734529557737331,0.002819686,0.009626657,0.22866725314010694,-0.017454395,-0.00989243,-2.680238471,-90.125,-113.6428761,7.054039878845215,-19.01296768,Garage
161,9.944199247,0.10137262802968905,0.17309051752090454,45,1.5,7.180511951446533,62.31999969482422,0.7697405815124512,300.4765930175781,155.1999969482422,-86.9101556,40.4246962,9.944199247,0.10137262802968905,0.17309051752090454,-50.50763302,-18.73541773,8.128371820449829,-0.02101789,0.012725490525147869,7.516979545047416E-4,0.018959897235759252,0.001576807,-8.23E-04,5.6340281164400206E-5,-3.42E-04,1.408506870875587E-4,0.9734192027629001,0.002894042,0.009675017,0.22880793558162393,-0.017513112,-0.010061846,-2.679950867,-89.33333333,-113.62787,7.065019894,-18.93147161,Garage
162,9.964160743268948,0.10385837586759364,0.1715107905922584,45,1.5,5.319819927215576,59.29800033569336,0.9746230840682983,120.9849624633789,155.1999969482422,-86.9100784,40.424661,9.964160743268948,0.10385837586759364,0.1715107905922584,-50.48664898,-18.74651964,8.029917855262756,-0.020898024,0.012769057236325283,6.57835504031167E-4,0.009695557,8.818861097097397E-4,-0.002444434,1.7620594007894397E-4,-3.10E-04,4.698823389704697E-5,0.9733986814434712,0.003034768,0.009681344,0.2288931208447768,-0.017460161,-0.010340252,-2.679777778,-88.375,-113.6063982,7.053917880058289,-19.02992565,Garage
163,9.931326218021725,0.10079184623019209,0.1729046679237514,45,1.5,5.319819927215576,59.29800033569336,0.9746230840682983,120.9849624633789,155.1999969482422,-86.9100784,40.424661,9.931326218021725,0.10079184623019209,0.1729046679237514,-50.48725914,-18.73907778,8.101775803565978,-0.020958584,0.012796657196092374,6.686701700407831E-4,-0.016605081,-0.001228498,-0.001453343,1.1564584028482148E-4,-2.70E-04,5.782289753749388E-5,0.9733961259277122,0.002988379,0.009697545,0.2289039130928447,-0.01751282,-0.010257548,-2.679755158,-86.33333333,-113.6067638,7.061725883483887,-18.9581896,Garage
164,9.906387356878485,0.097469771,0.17285820494577722,45,1.5,5.319819927215576,59.29800033569336,0.9746230840682983,120.9849624633789,155.1999969482422,-86.9100784,40.424661,9.906387356878485,0.097469771,0.17285820494577722,-50.49177311,-18.76738178,8.082255825996398,-0.021148362,0.012654324,8.821701789184392E-4,-0.011891698,-0.002455983,-0.00157353,-7.41E-05,-4.18E-04,2.713229143268709E-4,0.9734035267413241,0.002893902,0.009705811,0.2288733166687697,-0.017572462,-0.010076842,-2.679816827,-84.88888889,-113.6117658,7.032079892158508,-18.97795366,Garage
165,9.907380557754665,0.097376846,0.17218449784135356,45,1.5,5.319819927215576,59.29800033569336,0.9746230840682983,120.9849624633789,155.1999969482422,-86.9100784,40.424661,9.907380557754665,0.097376846,0.17218449784135356,-50.42150105,-18.90402161,8.197057834,-0.021041612,0.012808518267227608,9.058924036968536E-4,-2.69E-04,-0.00154855,-0.001660176,3.26180575162317E-5,-2.67E-04,2.9504513910528525E-4,0.973423652,0.002855511,0.009675569,0.22878946942611805,-0.017532005,-0.009986749,-2.679988317,-81,-113.5411281,6.896049857139587,-18.86254168,Garage
166,9.940346149297861,0.10139585931140643,0.1724672939341802,45,1.5,5.319819927215576,59.29800033569336,0.9746230840682983,120.9849624633789,155.1999969482422,-86.9100784,40.424661,9.940346149297861,0.10139585931140643,0.1724672939341802,-50.44211933,-18.84692562,8.074691829681397,-0.020946723,0.012796657241302209,6.449479492182292E-4,0.017985538371558328,0.002024882,-0.001850301,1.2750695210890574E-4,-2.62E-04,3.410067841030874E-5,0.9734170541022588,0.002863616,0.009686559,0.22881696047713457,-0.017549414,-0.010008052,-2.67993202,-81.66666667,-113.5616235,6.953633871078491,-18.98551773,Garage
167,9.963838466162821,0.10385837630160803,0.17195218512155477,45,1.5,3.728546619415283,61.33300018310547,0.4902605712413788,198.74375915527344,155.1999969482422,-86.9101036,40.4246395,9.963838466162821,0.10385837630160803,0.17195218512155477,-50.55875084,-18.71126177,8.056757864952088,-0.02091114,0.012796657159924507,7.398368426806574E-4,0.010952986559821564,0.001312278,-0.001690911,1.6309028645091264E-4,-2.76E-04,1.2898957526347445E-4,0.973408133,0.003033641,0.009663082,0.22885371686764133,-0.017425533,-0.010328991,-2.679858576,-77,-113.6770354,7.089175887107849,-19.00308569,Garage
168,9.935168071857934,0.1004898395226563,0.1734593151119149,45,1.5,3.728546619415283,61.33300018310547,0.4902605712413788,198.74375915527344,155.1999969482422,-86.9101036,40.4246395,9.935168071857934,0.1004898395226563,0.1734593151119149,-50.63292694,-18.93305767,8.065053844451905,-0.020934862,0.012701768,8.228646169724034E-4,-0.013895396,-0.002621851,-8.93E-04,1.3936806393299E-4,-3.80E-04,2.1201734559935997E-4,0.9733837877662437,0.003021576,0.009713712,0.22895523298133924,-0.017528549,-0.0103305,-2.679650307,-63.88888889,-113.7531642,6.866891899108887,-18.99491161,Garage
169,9.905861808258352,0.098097017,0.1713017090721038,45,1.5,3.728546619415283,61.33300018310547,0.4902605712413788,198.74375915527344,155.1999969482422,-86.9101036,40.4246395,9.905861808258352,0.098097017,0.1713017090721038,-52.84795902,-25.20861555,9.657397804260254,-0.020946723,0.012701768265331833,9.88920181379337E-4,-0.013764863,-0.001783414,-0.00328328,1.2750695210890574E-4,-3.75E-04,3.7807291791801457E-4,0.9734054254096689,0.002887755,0.009703543,0.22886537478386776,-0.017570929,-0.010063698,-2.679833042,-75.125,-115.9674639,0.5915779838338494,-17.40268963,Garage
170,9.904825136499497,0.098538411,0.1724632725264262,45,1.5,3.728546619415283,61.33300018310547,0.4902605712413788,198.74375915527344,155.1999969482422,-86.9101036,40.4246395,9.904825136499497,0.098538411,0.1724632725264262,-53.83823292,-27.83137152,11.361615800857544,-0.020921518,0.012592851327588925,6.8132962713627E-4,-0.002491584,-3.41E-04,-0.001855342,1.5271181473508477E-4,-4.93E-04,7.048235812152807E-5,0.9734074702629676,0.002861313,0.009705919,0.22885694,-0.01758775,-0.010013148,-2.679850042,-72.22222222,-116.9585921,-2.031421958,-15.69834967,Garage
171,9.937711937913617,0.1018837163025893,0.17211480409774965,45,1.5,3.728546619415283,61.33300018310547,0.4902605712413788,198.74375915527344,155.1999969482422,-86.9101036,40.4246395,9.937711937913617,0.1018837163025893,0.17211480409774965,-53.99488106,-28.56141943,12.328343763351441,-0.020982306,0.012749212676460304,9.651979605567832E-4,0.018277436784170206,6.085762627495145E-4,-0.001973532,9.192361663665297E-5,-3.34E-04,3.543506970954607E-4,0.9733961039376491,0.00296352,0.009703564,0.22890404619059515,-0.0175359,-0.01021191,-2.679754611,-74.33333333,-117.1157281,-2.761469946,-14.73186573,Garage
172,9.964732836751105,0.10522902214411393,0.17234711710689138,45,1.5,6.634042263031006,62.12099838256836,0.8629179000854492,288.2344665527344,155.1999969482422,-86.9101627,40.4246608,9.964732836751105,0.10522902214411393,0.17234711710689138,-54.05649094,-28.75979139,12.940661697387695,-0.020934862,0.012701768,7.991423989754641E-4,0.012762486355975993,3.042480031263481E-4,-0.002214275,1.3936806280274414E-4,-3.74E-04,1.882951315582811E-4,0.9733588024250512,0.003125459,0.0097376,0.2290590312874433,-0.017526396,-0.010545558,-2.679438642,-80.625,-117.1767278,-2.960085914,-14.11966968,Garage
173,9.937134020536849,0.10432300174120561,0.17346221816192553,45,1.5,6.634042263031006,62.12099838256836,0.8629179000854492,288.2344665527344,155.1999969482422,-86.9101627,40.4246608,9.937134020536849,0.10432300174120561,0.17346221816192553,-54.05697891,-28.82384144,13.203327741622925,-0.020863695,0.012583157156132957,7.635590635032113E-4,-0.013760104,-0.001287514,-0.002119106,2.105347348774955E-4,-5.01E-04,1.527117943906596E-4,0.973326073,0.00314614,0.009796703,0.22919528345459872,-0.017630518,-0.01061536,-2.679159546,-83.33333333,-117.176606,-3.023403921,-13.85663769,Garage
174,9.908011418122511,0.10105074060937533,0.17357167358008715,45,1.5,6.634042263031006,62.12099838256836,0.8629179000854492,288.2344665527344,155.1999969482422,-86.9101627,40.4246608,9.908011418122511,0.10105074060937533,0.17357167358008715,-53.99305092,-28.81115343,13.236999731063843,-0.020923001,0.012725490516105902,7.042535066432816E-4,-0.013554332,-0.001358921,-0.001655742,1.5122917575707424E-4,-3.48E-04,9.34062369656071E-5,0.9733553424622249,0.003011661,0.009771869,0.229073814,-0.017645072,-0.010339977,-2.679407085,-83.625,-117.1127999,-3.011325915,-13.82345374,Garage
175,9.885569239125669,0.080464469,0.17603508303466353,45,1.5,6.634042263031006,62.12099838256836,0.8629179000854492,288.2344665527344,155.1999969482422,-86.9101627,40.4246608,9.885569239125669,0.080464469,0.17603508303466353,-54.08455112,-28.85702541,13.24383171081543,-0.021148362,0.012488268261540283,0.002922281,-0.020805998,-0.020826491,-0.001199452,-7.41E-05,-5.99E-04,0.002311434,0.9733609632380957,0.002860068,0.009797082,0.22905023439416608,-0.017763632,-0.010056021,-2.679453672,-80.66666667,-117.2043,-3.056099908,-13.81625568,Garage
176,9.953320456939993,0.14444343515590413,0.17112747355572228,45,1.5,6.634042263031006,62.12099838256836,0.8629179000854492,288.2344665527344,155.1999969482422,-86.9101627,40.4246608,9.953320456939993,0.14444343515590413,0.17112747355572228,-53.98780499,-28.93705753,13.254811687469482,-0.020958584,0.013223657176549573,0.001190559,0.034771836,0.018057155884006647,-0.00298913,1.1564583689408395E-4,1.6309030283947738E-4,5.797118093203573E-4,0.9730442258918169,0.004252796,0.010075625,0.2303570461215325,-0.017650577,-0.012918974,-2.676788934,-86.375,-117.1076756,-3.136375945,-13.80551972,Garage
177,9.960649972,0.13087636402365074,0.17246327281576915,45,1.5,6.634042263031006,62.12099838256836,0.8629179000854492,288.2344665527344,155.1999969482422,-86.9101627,40.4246608,9.960649972,0.13087636402365074,0.17246327281576915,-54.01854881,-28.94632948,13.276161785125732,-0.020828112,0.012832241,8.465868377949572E-4,0.011866458411355621,0.002350574,-9.84E-04,2.4611806921950245E-4,-2.31E-04,2.3573956811728263E-4,0.973104977,0.004266347,0.009955299,0.23010719155223625,-0.017413946,-0.012885158,-2.677301437,-78.55555556,-117.1374435,-3.145647962,-13.78380377,Garage
178,9.938606345537798,0.1288552415168401,0.173671301,45,1.5,8.015880584716797,47.678001403808594,12.445215225219727,100.14192962646484,163.5,-86.9091858,40.4245261,9.938606345537798,0.1288552415168401,0.173671301,-54.03880096,-28.94693947,13.255787706375122,-0.020828112,0.012689907,7.754201787180331E-4,-0.011771248,-0.001736015,3.2339917803273616E-4,2.4611807034974825E-4,-3.87E-04,1.6457291356134182E-4,0.9730701625925823,0.004375752,0.009996207,0.2302506526986372,-0.017441368,-0.013119488,-2.677008386,-81.125,-117.159038,-3.146257968,-13.80417771,Garage
179,9.908890603815468,0.12474330435100112,0.1701169125374081,45,1.5,8.015880584716797,47.678001403808594,12.445215225219727,100.14192962646484,163.5,-86.9091858,40.4245261,9.908890603815468,0.12474330435100112,0.1701169125374081,-54.03916691,-28.91887951,13.355095739364623,-0.021027242,0.012792551406444265,7.283178767046103E-4,-0.013255018,-0.001870683,-0.003704121,4.698825068771839E-5,-2.80E-04,1.1747060657049027E-4,0.9731027994018334,0.004196406,0.009976732,0.23011686065449163,-0.017487755,-0.012759064,-2.677280988,-83,-117.1590382,-3.119173942,-13.70486972,Garage
180,9.906195816,0.12434837222099304,0.16890888624978298,45,1.5,8.015880584716797,47.678001403808594,12.445215225219727,100.14192962646484,163.5,-86.9091858,40.4245261,9.906195816,0.12434837222099304,0.16890888624978298,-54.05697903,-28.95377151,13.396697750091553,-0.020839973,0.012737351641492936,7.872812871513797E-4,-0.00313995,-8.35E-04,-0.00280685,2.3425695852566402E-4,-3.31E-04,1.764340180388281E-4,0.9731587923846199,0.004158674,0.009877044,0.22988499946964597,-0.017314077,-0.012635608,-2.677755886,-88.88888889,-117.1764842,-3.153943963,-13.66326771,Garage
181,9.929084416732048,0.12676442573660784,0.1698381375629925,45,1.5,8.015880584716797,47.678001403808594,12.445215225219727,100.14192962646484,163.5,-86.9091858,40.4245261,9.929084416732048,0.12676442573660784,0.1698381375629925,-53.58386292,-29.3046434,13.538949756622314,-0.020851834,0.012488268207288484,9.414757386039834E-4,0.013647746113897527,8.655454493263393E-4,-0.002612476,2.2239584670157977E-4,-6.12E-04,3.3062847570778384E-4,0.9731359800088752,0.004181759,0.009915781,0.22997943362564716,-0.017377639,-0.012700037,-2.677562542,-89.5,-116.7037341,-3.506035926,-13.52077176,Garage
182,9.961410828007077,0.13024911921001175,0.1696290558981664,45,1.5,4.9793267250061035,47.06999969482422,11.487760543823242,285.1733398,155.1999969482422,-86.9100901,40.4247027,9.961410828007077,0.13024911921001175,0.1696290558981664,-54.02501476,-28.97402351,13.391207733154296,-0.020839973,0.012440823814243947,7.872812877165027E-4,0.014612586752882281,4.449157604893434E-4,-0.002902411,2.3425695852566402E-4,-6.51E-04,1.7643401973419686E-4,0.9731042801755146,0.004357509,0.009934389,0.23010946868114102,-0.017331327,-0.013052989,-2.677297599,-89.22222222,-117.1457401,-3.173219974,-13.66887972,Garage
183,9.942796514584469,0.1289133201711453,0.17269737230470547,45,1.5,4.9793267250061035,47.06999969482422,11.487760543823242,285.1733398,155.1999969482422,-86.9100901,40.4247027,9.942796514584469,0.1289133201711453,0.17269737230470547,-54.1206628,-28.96755751,13.425367765426635,-0.020899279,0.012274768248706767,9.177535098697086E-4,-0.00943883,-0.001696254,-0.002559646,1.7495139940524275E-4,-8.21E-04,3.069062396269111E-4,0.9730392399343472,0.004352186,0.010062019214106417,0.23037884391627264,-0.017578576,-0.013106249,-2.676745436,-87.75,-117.2407782,-3.167729969,-13.63435374,Garage
184,9.908112377796359,0.12474330398932244,0.17072092691092816,45,1.5,4.9793267250061035,47.06999969482422,11.487760543823242,285.1733398,155.1999969482422,-86.9100901,40.4247027,9.908112377796359,0.12474330398932244,0.17072092691092816,-54.12017494,-28.92705351,13.410117769241333,-0.020792529,0.012369657107131574,7.991423967149724E-4,-0.015837419,-0.002233152,-0.004243278,1.7495139092839893E-4,-3.26E-04,8.154513757422711E-5,0.9730661083193659,0.00420562,0.010045751956409043,0.23026872057359196,-0.017615843,-0.012811522,-2.676969804,-84.88888889,-117.2398018,-3.127713933,-13.65009175,Garage
185,9.904581163,0.12427867730193347,0.1718795869535613,45,1.5,4.9793267250061035,47.06999969482422,11.487760543823242,285.1733398,155.1999969482422,-86.9100901,40.4247027,9.904581163,0.12427867730193347,0.1718795869535613,-54.0627129,-28.94632944,13.505887746810913,-0.020780667,0.012476407154237182,9.414757301271396E-4,-0.00426448,2.0598576774874937E-4,-8.99E-04,1.4085067804559199E-4,-4.60E-05,1.779166773612638E-4,0.9731484148108843,0.004099773,0.009911548,0.22992829081502933,-0.017407715,-0.012537649,-2.677666581,-71.25,-117.1829498,-3.146745951,-13.55395574,Garage
186,9.929575179387065,0.12458068523013476,0.16932705001344958,45,1.5,4.9793267250061035,47.06999969482422,11.487760543823242,285.1733398,155.1999969482422,-86.9100901,40.4247027,9.929575179387065,0.12458068523013476,0.16932705001344958,-54.02403893,-28.96304354,13.40523775100708,-0.020887417,0.012559434887274954,8.347257333174709E-4,0.014823691358844053,-3.85E-06,-0.001106417,3.410067614981706E-5,3.706599535981139E-5,7.116667094450552E-5,0.9731916275996606,0.004132018,0.00981958,0.22974883077792752,-0.017216211,-0.012554904,-2.678034708,-71,-117.1440319,-3.162727969,-13.65448372,Garage
187,9.971353692915834,0.1255651101610144,0.17556755294660514,45,1.5,4.9793267250061035,47.06999969482422,11.487760543823242,285.1733398,155.1999969482422,-86.9100901,40.4247027,9.971353692915834,0.1255651101610144,0.17556755294660514,-54.60951702,-28.62766537,13.911781749725343,-0.020909771,0.012757310224025367,6.813296198603124E-4,0.022791656,-7.26E-04,0.003605987,1.1747039724678661E-5,2.3494128869900195E-4,-8.22E-05,0.9731036567917237,0.004194561,0.009864584,0.23011766245158818,-0.017270214,-0.012703935,-2.67727795,-40.375,-117.7298755,-2.828203933,-13.14793977,Garage
188,9.937653828593133,0.12202814554352566,0.1736103178869969,45,1.5,3.118563175201416,34.56200027,1.8965998888015747,249.9972381591797,155.1999969482422,-86.910093,40.4246385,9.937653828593133,0.12202814554352566,0.1736103178869969,-53.16747688,-29.16690542,13.420609741210937,-0.020946723,0.012369657143299441,0.001036365,-0.023647577,8.820341628732033E-4,-0.002825274,-2.52E-05,-1.53E-04,2.7280557195393787E-4,0.9730638097790838,0.003880347,0.010014218278229237,0.23028561820104285,-0.017704001,-0.012164215,-2.676930673,-42.11111111,-116.2861275,-3.367077949,-13.63911171,Garage
189,9.914047907857062,0.11955691936303799,0.1742578900048455,45,1.5,3.118563175201416,34.56200027,1.8965998888015747,249.9972381591797,155.1999969482422,-86.910093,40.4246385,9.914047907857062,0.11955691936303799,0.1742578900048455,-53.08439529,-29.2707275,13.605561800003052,-0.020828112,0.012571296057871823,8.703091077832053E-4,-0.016216389,-4.40E-04,-9.13E-04,9.340624148659047E-5,4.892712583295205E-5,1.0675000641675828E-4,0.9731029324161197,0.003850747,0.009968172,0.23012266720382912,-0.017629996,-0.012082456,-2.677264672,-48.375,-116.2040218,-3.469923933,-13.45403779,Garage
190,9.903419596477619,0.11385073444864813,0.1750216184780725,45,1.5,3.118563175201416,34.56200027,1.8965998888015747,249.9972381591797,155.1999969482422,-86.910093,40.4246385,9.903419596477619,0.11385073444864813,0.1750216184780725,-52.903713,-29.2914674,13.727683782577515,-0.021029751,0.012772934927234372,8.465868451415552E-4,-0.008163471,-0.003943928,8.623080635533749E-4,-1.08E-04,2.5056603927508863E-4,8.302778276858978E-5,0.9731119847992091,0.003760894,0.009913966,0.23008824986161538,-0.017566245,-0.011882,-2.677333698,-50.66666667,-116.0241939,-3.490785928,-13.33252571,Garage
191,9.930665493011475,0.12384870388688377,0.1744287180571029,45,1.5,3.118563175201416,34.56200027,1.8965998888015747,249.9972381591797,155.1999969482422,-86.910093,40.4246385,9.930665493011475,0.12384870388688377,0.1744287180571029,-52.68155109,-29.32038147,13.880793714523316,-0.020899279,0.012523851529197785,7.398368268572155E-4,0.014236626115817469,0.002161704,0.00120147,2.2239568281593253E-5,1.4826864483359368E-6,-2.37E-05,0.9730293895434408,0.003848107,0.009949588,0.23043427797197139,-0.01759117,-0.012074396,-2.676624006,-46.88888889,-115.8025192,-3.520431926,-13.17904975,Garage
192,9.961355514896725,0.12841384662586508,0.17431596836563454,45,1.5,3.118563175201416,34.56200027,1.8965998888015747,249.9972381591797,155.1999969482422,-86.910093,40.4246385,9.961355514896725,0.12841384662586508,0.17431596836563454,-52.45109306,-29.37198744,13.958507690429688,-0.020851834,0.012595018204663274,6.568090565213301E-4,0.018529781,0.00451717,-0.001599741,6.968401557793027E-5,7.264936078357899E-5,-1.07E-04,0.9729450454989683,0.004048332,0.009954897,0.23078647689911927,-0.017504751,-0.01247285,-2.675902603,-47.75,-115.5715739,-3.571915927,-13.10121373,Garage
193,9.943821647792186,0.1229370721859984,0.17529748973337192,45,1.5,25.117773056030273,80.61499786376953,2.3678088188171387,298.49285888671875,153.6999969482422,-86.9102194,40.4247,9.943821647792186,0.1229370721859984,0.17529748973337192,-52.39180084,-29.4704414,14.154073724746704,-0.020899279,0.012381518178266807,9.414757306922625E-4,-0.007867295,4.0301203149036295E-5,-8.62E-05,2.2239564890855726E-5,-1.41E-04,1.779166773612638E-4,0.9728396245576802,0.00406718,0.010020514136379204,0.2312272571533629,-0.017618078,-0.012547802,-2.674997506,-47.77777778,-115.5138674,-3.669637909,-12.90601374,Garage
194,9.910017254283128,0.1178261869885389,0.1756314400185659,45,1.5,25.117773056030273,80.61499786376953,2.3678088188171387,298.49285888671875,153.6999969482422,-86.9102194,40.4247,9.910017254283128,0.1178261869885389,0.1756314400185659,-52.33141094,-29.53156338,14.216903715133666,-0.020851834,0.01272549,7.754201657202059E-4,-0.01528539,-4.95E-04,0.001105898,6.968401331743859E-5,2.0312159536948915E-4,1.1861111824084254E-5,0.9727797664484932,0.003952921,0.010004974693710943,0.2314816293785873,-0.017637432,-0.012322898,-2.674472971,-45.75,-115.4510374,-3.731369896,-12.84306173,Garage
195,9.904450527672628,0.11917941022700476,0.1752742593475048,45,1.5,25.117773056030273,80.61499786376953,2.3678088188171387,298.49285888671875,153.6999969482422,-86.9102194,40.4247,9.904450527672628,0.11917941022700476,0.1752742593475048,-52.37984505,-29.54461742,14.129429759979248,-0.020994167,0.012832240432102992,8.347257203196438E-4,-0.002676473,-0.001033945,2.894860158846216E-4,-7.26E-05,3.0987157805108473E-4,7.116667094450552E-5,0.9727544668808724,0.003824529,0.009943865,0.23159273127907687,-0.017576568,-0.012046811,-2.674242281,-47.55555556,-115.5003259,-3.744667881,-12.93029174,Garage
196,9.926232763864462,0.12199330078528343,0.17164146560199053,45,1.5,25.117773056030273,80.61499786376953,2.3678088188171387,298.49285888671875,153.6999969482422,-86.9102194,40.4247,9.926232763864462,0.12199330078528343,0.17164146560199053,-52.45011719,-29.45458143,14.071235761642455,-0.020968506,0.012557610117185574,9.162708699407701E-4,0.006593319,-0.001201072,-7.95E-04,-4.70E-05,3.524124230562638E-5,1.5271181473508477E-4,0.9727144441925563,0.003847179,0.009892931,0.23176258716445702,-0.017464865,-0.012070335,-2.673892755,-45.5,-115.5708418,-3.654997902,-12.98860776,Garage
197,9.963301167904753,0.12464747488503208,0.17537299131305473,45,1.5,25.117773056030273,84.12200164794922,1.2643910646438599,310.9089660644531,153.6999969482422,-86.9102458,40.4247294,9.963301167904753,0.12464747488503208,0.17537299131305473,-52.47854332,-29.39748531,14.049885740280152,-0.021029751,0.012737351609846053,8.11003505148319E-4,0.018355795480672597,0.001099981,0.002010588,-1.08E-04,1.8681256209038993E-4,4.7444447296337016E-5,0.972627328,0.0040173,0.00991754,0.2321239827038015,-0.017429322,-0.012419197,-2.673152065,-44.66666667,-115.5984138,-3.596803916,-13.0100797,Garage
198,9.953956363270583,0.12410153945550793,0.1753787997278195,45,1.5,25.117773056030273,84.12200164794922,1.2643910646438599,310.9089660644531,153.6999969482422,-86.9102458,40.4247294,9.953956363270583,0.12410153945550793,0.1753787997278195,-52.53771313,-29.44921347,14.077213735580445,-0.021041612,0.012251045984369748,7.991424029313245E-4,-0.003256779,-4.36E-04,-2.49E-04,-1.20E-04,-4.24E-04,3.558333547225276E-5,0.9725179868994407,0.004030235,0.010029165761418712,0.2325766465617615,-0.017634708,-0.012504398,-2.672222677,-41.375,-115.6578275,-3.649995914,-12.98311773,Garage
199,9.918729004,0.12327392508266764,0.17467605242125908,45,1.5,25.117773056030273,84.12200164794922,1.2643910646438599,310.9089660644531,153.6999969482422,-86.9102458,40.4247294,9.918729004,0.12327392508266764,0.17467605242125908,-52.53929913,-29.46836752,14.051959714889527,-0.020851834,0.012357796,9.296146414730951E-4,-0.0132841,0.001241994,-0.003777757,6.968401670817611E-5,-3.17E-04,1.6605556553717955E-4,0.9724215500563094,0.003879989,0.010165405966052152,0.23297601287226075,-0.017964558,-0.012282954,-2.671401001,-41.44444444,-115.6595356,-3.669393904,-13.00800572,Garage
200,9.904568818899302,0.11566939189819656,0.17940705479570448,45,1.5,25.117773056030273,84.12200164794922,1.2643910646438599,310.9089660644531,153.6999969482422,-86.9102458,40.4247294,9.904568818899302,0.11566939189819656,0.17940705479570448,-52.47915295,-29.65844347,14.115521764755249,-0.020899279,0.012701768260810849,-1.38E-04,-0.007722697,-7.90E-05,0.002601375,2.2239569411839096E-5,2.668756263746509E-5,-9.01E-04,0.9724600749108397,0.003714407,0.010043735,0.23282310106221912,-0.017806825,-0.011901407,-2.671712028,-41.11111111,-115.5989014,-3.858371904,-12.94444379,Garage
201,9.921810066815718,0.10720948978480928,0.17182441149811142,45,1.5,25.117773056030273,84.12200164794922,1.2643910646438599,310.9089660644531,153.6999969482422,-86.9102458,40.4247294,9.921810066815718,0.10720948978480928,0.17182441149811142,-52.30786503,-29.17446955,14.620601663589477,-0.020970445,0.012381518295812376,2.0608679703391583E-4,0.003394497,-0.00345424,-0.002412679,-4.89E-05,-2.94E-04,-5.57E-04,0.9725208236175833,0.003156274,0.009838782,0.23258639973344156,-0.017670554,-0.010716035,-2.672189444,-40.875,-115.4272478,-3.374885936,-12.43997375,Garage
202,9.951932342307082,0.10812422094156839,0.17664780872828753,45,1.5,25.117773056030273,84.12200164794922,1.2643910646438599,310.9089660644531,153.6999969482422,-86.9102458,40.4247294,9.951932342307082,0.10812422094156839,0.17664780872828753,-52.47085697,-29.06405945,14.086363763809205,-0.020863695,0.012440824,7.516979460278978E-4,0.021730274830049683,0.004276737,-1.49E-04,5.7822911100443994E-5,-2.34E-04,-1.19E-05,0.972399827,0.003230271,0.009859276,0.23308985774378174,-0.017670358,-0.010878645,-2.671155231,-47.44444444,-115.590606,-3.263621955,-12.97372377,Garage
203,9.959194998139317,0.11277628646828958,0.17585504076723912,45,1.5,9.343145370483398,36.125,1.513919472694397,103.69336700439453,155.1999969482422,-86.9100894,40.4246891,9.959194998139317,0.11277628646828958,0.17585504076723912,-52.58883095,-29.27267939,13.92910572052002,-0.020756945,0.012345935,7.398368251618468E-4,-0.010524509,-0.00270237,-8.85E-04,1.645729180823252E-4,-3.29E-04,-2.37E-05,0.972299423,0.003316998,0.009963147,0.23350276819710591,-0.017827304,-0.011103311,-2.670308152,-48.375,-115.7094337,-3.473095927,-13.13085971,Garage
204,9.911248531156373,0.10362025607689239,0.1790812856798033,45,1.5,9.343145370483398,36.125,1.513919472694397,103.69336700439453,155.1999969482422,-86.9100894,40.4246891,9.911248531156373,0.10362025607689239,0.1790812856798033,-52.59932301,-29.25803936,13.943989744186402,-0.020956759,0.012663333726008065,6.460884234491879E-4,-0.014156103,-4.49E-04,6.531931173342925E-5,-3.52E-05,-1.17E-05,-1.17E-04,0.9722771283525687,0.003129336,0.009992549,0.2335968971825563,-0.01797104,-0.010753832,-2.670112337,-50.88888889,-115.7191936,-3.458943942,-13.11658569,Garage
205,9.904639179266772,0.10499380555261577,0.17850340743666715,45,1.5,9.343145370483398,36.125,1.513919472694397,103.69336700439453,155.1999969482422,-86.9100894,40.4246891,9.904639179266772,0.10499380555261577,0.17850340743666715,-52.70668274,-29.30232542,13.95582371711731,-0.020994167,0.012725490529668851,7.754201668504517E-4,-0.007209361,-1.76E-04,0.001109792,-7.26E-05,5.040980097882956E-5,1.1861111824084254E-5,0.9722755476109033,0.00306652,0.009937112,0.23360668701454274,-0.017892454,-0.01060596,-2.670090828,-50.125,-115.8265536,-3.502375929,-13.10414176,Garage
206,9.921487715637799,0.1069771763846025,0.17522198876854286,45,1.5,9.343145370483398,36.125,1.513919472694397,103.69336700439453,155.1999969482422,-86.9100894,40.4246891,9.921487715637799,0.1069771763846025,0.17522198876854286,-52.70839062,-29.29134542,13.879817724227905,-0.020958584,0.012595018272478026,8.821701647903662E-4,0.010594358721983086,0.001622148,-0.001673621,-3.71E-05,-8.01E-05,1.1861111824084254E-4,0.9722566344205615,0.003080541,0.009916198,0.23368609154108658,-0.017844361,-0.010624911,-2.66992747,-50.55555556,-115.8285056,-3.48980994,-13.18014773,Garage
207,9.963344741,0.1125497817326319,0.17717341669988865,45,1.5,9.343145370483398,36.125,1.513919472694397,103.69336700439453,155.1999969482422,-86.9100894,40.4246891,9.963344741,0.1125497817326319,0.17717341669988865,-52.7344989,-29.33550947,13.883965721130371,-0.020756945,0.012535712745004488,9.296146115215803E-4,0.022594183,0.002899274,3.216741154494795E-4,1.6457291582183353E-4,-1.17E-04,1.6605556553717955E-4,0.9722112220467873,0.003280185,0.009935473,0.23387140686650879,-0.017786474,-0.011025538,-2.669549123,-50.625,-115.8548577,-3.53616993,-13.17612171,Garage
208,9.950558726604168,0.10752459184956163,0.17835444269271997,45,1.5,4.227777004241943,35.45199966430664,0.41780638694763184,261.08197021484375,155.1999969482422,-86.9101254,40.4246877,9.950558726604168,0.10752459184956163,0.17835444269271997,-52.72242081,-29.34295149,13.78587773323059,-0.020875556,0.012523852,8.347257237103813E-4,-0.002893522,1.361330302016249E-4,5.38303797106141E-4,4.596179306000761E-5,1.4826904041963873E-6,7.116667094450552E-5,0.9721988271741033,0.003299139,0.009922765,0.23392321979536593,-0.017752316,-0.011057398,-2.669442656,-48.55555556,-115.8426574,-3.543733921,-13.27396577,Garage
