seconds_elapsed,microphone_dBFS,accelerometerUncalibrated_z,accelerometerUncalibrated_y,accelerometerUncalibrated_x,gyroscope_z,gyroscope_y,gyroscope_x,location_bearingAccuracy,location_speedAccuracy,location_verticalAccuracy,location_horizontalAccuracy,location_speed,location_bearing,location_altitude,location_longitude,location_latitude,magnetometerUncalibrated_z,magnetometerUncalibrated_y,magnetometerUncalibrated_x,magnetometer_z,magnetometer_y,magnetometer_x,accelerometer_z,accelerometer_y,accelerometer_x,gyroscopeUncalibrated_z,gyroscopeUncalibrated_y,gyroscopeUncalibrated_x,totalAcceleration_z,totalAcceleration_y,totalAcceleration_x,orientation_qz,orientation_qy,orientation_qx,orientation_qw,orientation_roll,orientation_pitch,orientation_yaw,class
0,-138.5454545,9.932324763706752,-0.251237833,-0.19071651,4.320626953480447E-4,-0.00238007,8.790241043287806E-4,45,1.5,1,11.755999565124512,0,0,160.1999969482422,-86.9154903,40.3848655,-103.9245441,-10.01751871,-33.4903183,-40.77584076,-35.81481992,-6.461620441,-0.003413129,-0.004906436,-0.00299468,-0.020966919,0.013558332984511917,9.286529085649228E-4,9.934002607296675,-0.248324374,-0.190267746,-0.995070499,0.013134718732908368,0.008170721,0.097955395,0.018840855220332742,0.024541660910472274,2.945112383365631,Home
1,-131.625,9.893674044933134,-0.256917715,-0.191382252,2.5501390421781147E-4,-0.002219511,7.531806008293501E-4,45,1.5,1,11.755999565124512,0,0,160.1999969482422,-86.9154903,40.3848655,-103.8121163,-10.01412577,-33.66138546,-40.69212326,-35.81468525,-6.601419864,-0.02198448,-0.006611841,-0.008952599,-0.02112464,0.013662518454191176,9.058924031317306E-4,9.893674044933134,-0.256917715,-0.191382252,-0.995091046,0.013455122202924155,0.007919273,0.097724275,0.018397466270524323,0.025233004,2.9455756122626147,Home
2,-132,9.874508237375796,-0.254556837,-0.195401266,3.143194633382327E-4,-0.001887399,0.001310653,45,1.5,1,11.755999565124512,0,0,160.1999969482422,-86.9154903,40.3848655,-103.8487161,-9.972401829,-33.48241146,-40.72921131,-35.77186306,-6.422445898,-0.010528824,-0.004766726,-0.011991598,-0.021065334,0.013994629422510133,0.001463365,9.874508237375796,-0.254556837,-0.195401266,-0.995111322,0.013474477,0.00799875,0.097508338,0.018554040890874215,0.025260003826137887,2.9460071892414277,Home
3,-136.625,9.877525843106783,-0.255235375,-0.19508407,2.3129168056964296E-4,-0.002219511,7.413195003077243E-4,45,1.5,1,11.755999565124512,0,0,160.1999969482422,-86.9154903,40.3848655,-103.826634,-9.991311808,-33.57366726,-40.70554329,-35.79101727,-6.513701882,0.001263026,-0.004157742,-0.012994057,-0.021148362,0.013662518363771508,8.940312890471547E-4,9.877525843106783,-0.255235375,-0.19508407,-0.995139635,0.013552371168382538,0.007930965,0.097213747,0.018426784,0.025433731889261783,2.9465991709996198,Home
4,-134.2222222,9.913821424095376,-0.250047063,-0.19512249,1.3640278597696893E-4,-0.002029733,4.922361406994965E-4,45,0.4140048325061798,1.0408086776733398,13.461999893188477,0.3569032847881317,10.264213562011719,160.1999969482422,-86.9154847,40.3848889,-103.846276,-9.941291819,-33.51718155,-40.72640526,-35.74160732,-6.457337899,0.018928009329490292,-0.001428519,-0.010817499,-0.021243251,0.013852296,6.44947936220402E-4,9.913821424095376,-0.250047063,-0.19512249,-0.995135868,0.013409269440159636,0.008058101,0.097261774,0.018653197,0.025123238346530397,2.946502838319945,Home
5,-146.375,9.944588411,-0.248214694,-0.195772967,4.151389138429489E-5,-0.002361844,6.52361150324634E-5,45,0.4060788154602051,1.0507307052612305,11.788000106811523,0.29977545142173767,143.6884307861328,160.1999969482422,-86.9154819,40.3848836,-103.8145565,-9.931653786,-33.50205338,-40.69492939,-35.73135941,-6.441599894,0.014782961132456956,-0.001385057,-0.012648844,-0.02133814,0.013520185021882496,2.1794791224873762E-4,9.944588411,-0.248214694,-0.195772967,-0.995156652,0.013227458,0.007956494,0.09708214,0.018410915472698443,0.024784441802252845,2.9468706556894246,Home
6,-146.2222222,9.913458426021835,-0.250648172,-0.195238646,-5.93E-06,-0.001519705,8.599306072461084E-4,45,0.39204591512680054,1.060716152191162,10.013999938964844,0.9102346301078796,282.4812927246094,160.1999969482422,-86.9154995,40.3848876,-103.8395661,-10.02766779,-33.59953148,-40.72006123,-35.82810501,-6.53944387,-0.015993266,-0.004578561,-0.0107828,-0.021385584,0.014362323965913462,0.001012642,9.913458426021835,-0.250648172,-0.195238646,-0.995152104,0.013255153728413929,0.008046732,0.097117444,0.018596871511884105,0.024821351616851336,2.9467968130574644,Home
7,-152.3333333,9.888702494426838,-0.251905563,-0.193868001,-7.71E-05,-0.002385566,-2.97E-05,45,0.40804412961006165,1.070717453956604,9.454000473022461,1.1665456295013428,138.43031311035156,160.1999969482422,-86.9154774,40.3848734,-103.8106524,-9.976915741,-33.66638718,-40.6905373,-35.77747524,-6.606665883,-0.011766628,-0.001334002,-0.009963002,-0.021456751,0.013496462843444162,1.23059028958522E-4,9.888702494426838,-0.251905563,-0.193868001,-0.995143111,0.013486120533378958,0.008006285,0.097181236,0.018562991,0.025287807457944723,2.9466641990883837,Home
8,-144.5,9.886332900778761,-0.25700193,-0.195052796,-7.05E-05,-0.00207923,4.111471935175359E-4,45,0.40804412961006165,1.080712914466858,8.928000450134277,0.44094568490982056,228.1717529296875,160.1999969482422,-86.9154912,40.3848747,-103.8994682,-9.956053782,-33.49644119,-40.7794754,-35.75575928,-6.436719904,-0.002574563,-0.00388769,-0.012162867,-0.021450136,0.013802798894735483,5.638589937007055E-4,9.886332900778761,-0.25700193,-0.195052796,-0.995144223,0.013632585,0.007960539,0.097153226,0.018499784243221466,0.025588777453566972,2.946718163215197,Home
9,-119.3333333,9.890958924895351,-0.255976847,-0.192845824,4.151389138429489E-5,-0.002100899,4.8037502887541227E-4,45,0.5603570342063904,1.090716004371643,8.437999725341797,0.3670503497123718,333.5969543457031,160.1999969482422,-86.9154917,40.3848817,-103.914962,-10.0097338,-33.48485149,-40.79533527,-35.80992737,-6.4251299,0.001079828,-0.001930691,-0.010860281,-0.02133814,0.013781129463928418,6.330868334382845E-4,9.890958924895351,-0.255976847,-0.192845824,-0.995162431,0.013670457056859165,0.007909566,0.09696538,0.018400834222297067,0.025677559,2.947096134852437,Home
10,-140.375,9.895245182,-0.25585198,-0.193682151,1.482638978010532E-4,-0.002136483,3.973472461068225E-4,45,0.5390732884407043,1.1007171869277954,6.7179999351501465,1.909010410308838,301.4082031,160.1999969482422,-86.9155229,40.3848948,-103.9385075,-9.973499746,-33.49924755,-40.81839317,-35.77418133,-6.439159894,0.002262264,-0.002121282,-0.011932493,-0.02123139,0.013745546155582064,5.50059055755801E-4,9.895245182,-0.25585198,-0.193682151,-0.995172153,0.013648849649770745,0.007898078,0.096869582,0.018371282109213107,0.025638551008209443,2.947289480746371,Home
11,-118,9.900297887,-0.257498497,-0.193473068,-4.15E-05,-0.002065316,4.4479169340315953E-4,45,0.3753664791584015,1.1107184886932373,6.077000141143799,0.2558051645755768,225.61550903320312,160.1999969482422,-86.9155139,40.3848863,-103.886902,-9.961909771,-33.53316341,-40.76715336,-35.76137135,-6.473319898,0.003538613,-0.003395281,-0.011942632,-0.021421167,0.013816712844610503,5.975034911845567E-4,9.900297887,-0.257498497,-0.193473068,-0.995176056,0.013660012210891085,0.007882871,0.096829094,0.018342134172042595,0.025664462753146596,2.947370959717093,Home
12,-127.5,9.942140790132376,-0.251191732,-0.192415151,7.709722685654765E-5,-0.001946705,5.634028116440021E-4,45,0.2475883662700653,1.120796799659729,5.488999843597412,1.519209861755371,110.49593353271484,160.1999969482422,-86.9154845,40.3848793,-103.8800697,-9.94873374,-33.52584332,-40.75983334,-35.74868336,-6.465755882,0.020484590993344206,4.209404431500481E-5,-0.0107996,-0.021302556,0.013935323976414296,7.161146122510138E-4,9.942140790132376,-0.251191732,-0.192415151,-0.995176886,0.013495174372225131,0.007883138,0.096843646,0.018310978339569083,0.025336016186522047,2.9473455484630993,Home
13,-121.2222222,9.952490047343726,-0.250174833,-0.191963036,-1.48E-04,-0.001745066,1.957083450973902E-4,45,0.2408318966627121,1.130759596824646,5.117000102996826,1.5069390535354614,147.2800750732422,160.1999969482422,-86.9154796,40.3848636,-103.8775081,-9.969473772,-33.47618927,-40.75666149,-35.76917927,-6.415857882,0.00657201,-5.80E-04,-0.009594986,-0.021527917,0.014136962836734879,3.484201558766145E-4,9.952490047343726,-0.250174833,-0.191963036,-0.995182886,0.013368245,0.007904844,0.096797859,0.018328357,0.025079982,2.947440013,Home
14,-88.125,9.944376380698195,-0.252672197,-0.194262932,1.8384723327330595E-4,-0.001673899,5.634028184254771E-4,45,0.2408318966627121,1.1407462358474731,4.850999832,1.0756049156188965,162.35743713378906,160.1999969482422,-86.9154796,40.3848559,-103.95632,-9.990213757,-33.61600143,-40.83596111,-35.7915052,-6.556401858,-0.005331401,-0.003129054,-0.010606792,-0.021195806,0.014208129489595451,7.161146071649076E-4,9.944376380698195,-0.252672197,-0.194262932,-0.99517802,0.013356147343021573,0.007948315,0.096845887,0.018413768,0.025046574,2.947342682810663,Home
15,-98.33333333,9.941545079055341,-0.24601353,-0.195354804,2.9652779560210635E-5,-0.001911122,4.210694765364661E-4,45,0.2408318966627121,1.1507762670516968,4.768000126,0.5141729116439819,186.2829132080078,160.1999969482422,-86.9154832,40.3848543,-103.8878783,-9.985699806,-33.52938137,-40.76739723,-35.78625908,-6.469293909,2.6967687514221786E-4,0.001079095,-0.010525641,-0.021350001,0.013970907253113765,5.737812714922486E-4,9.941545079055341,-0.24601353,-0.195354804,-0.995161922,0.013276368479054529,0.008068367,0.097012211,0.018641445,0.024861363929162904,2.9470073158301195,Home
16,-99.125,9.932177089950413,-0.251565808,-0.193054905,-5.34E-05,-0.001768788,6.108472612008308E-4,45,0.25495097041130066,1.1104849576950073,4.650000095367432,0.2510293424129486,237.6094512939453,160.1999969482422,-86.9154869,40.3848553,-103.9918221,-9.937753839,-33.54182556,-40.871707,-35.73782513,-6.481737914,-0.00652591,-0.004863034,-0.008450344,-0.021433029,0.014113241,7.635590567217362E-4,9.932177089950413,-0.251565808,-0.193054905,-0.995165957,0.013248235339895614,0.008030011,0.09697789,0.018558733725866066,0.024813460999900856,2.9470778923590206,Home
17,-56.66666667,9.910066623132206,-0.252811586,-0.196586062,5.873531335964799E-5,-0.002314171,4.346413233389075E-4,45,0.3606937825679779,1.1205843687057495,4.485000133514404,0.14827004075050354,256.5085754394531,160.1999969482422,-86.9154881,40.3848556,-103.8821439,-9.920917826,-33.50510353,-40.7615414,-35.71989143,-6.445381913,-0.009353986,-0.004484213,-0.012990162,-0.021320918,0.013567857538314106,5.873531212833208E-4,9.910066623132206,-0.252811586,-0.196586062,-0.995171099,0.013349323,0.007999238,0.096913675,0.018515546465865694,0.025021851,2.9472053280243506,Home
18,-74,9.912871823727507,-0.25199849,-0.19784055,6.52361150324634E-5,-0.001958566,7.413194980472326E-4,45,0.32557642459869385,1.1306071281433105,4.2170000076293945,0.13513746857643127,266.26422119140625,160.1999969482422,-86.9154896,40.3848557,-103.8833646,-9.913597775,-33.50961746,-40.76446915,-35.71464527,-6.449651895,-1.94E-04,-0.003647685,-0.01336522,-0.021314417,0.013923462715397761,8.940312788749421E-4,9.912871823727507,-0.25199849,-0.19784055,-0.995167902,0.013365031328522464,0.008044414,0.096940608,0.018609226581830424,0.025043847,2.9471497234788915,Home
19,-71.77777778,9.926392453388104,-0.249379163,-0.198072864,7.709722685654765E-5,-0.002160205,5.989861516372382E-4,0,0.3189043700695038,1.1405797004699707,4.072999954223633,0.063732937,0,160.1999969482422,-86.9154898,40.3848559,-103.8973941,-9.98899375,-33.57513149,-40.77752319,-35.78796738,-6.514555902,0.005149702,-0.002289258,-0.012424709,-0.021302556,0.013721823873161112,7.516979460278978E-4,9.926392453388104,-0.249379163,-0.198072864,-0.995160882,0.013296829382843763,0.008101791,0.097017293,0.018712112,0.024895504478690694,2.9469958022960183,Home
20,-74,9.928747501188111,-0.250903715,-0.195401267,4.151389138429489E-5,-0.002112761,8.480694999430076E-4,0,0.21931712329387665,1.150529146194458,4.044000148773193,0.033240594,0,160.1999969482422,-86.9154899,40.3848557,-103.9137422,-9.970571795,-33.54182533,-40.79399311,-35.77125317,-6.481981878,0.001051495,-0.00374656,-0.010294135,-0.02133814,0.013769268324978432,0.001000781,9.928747501188111,-0.250903715,-0.195401267,-0.995164742,0.01328915,0.008069476,0.096981373,0.018645384665397766,0.024887164,2.947068957449163,Home
21,-78,9.903137938490191,-0.254205463,-0.196911299,-2.97E-05,-0.002100899,4.2106947879695775E-4,0,0.22627416253089905,1.160522699356079,3.934999942779541,0.03715409,0,160.1999969482422,-86.9154904,40.3848559,-103.897028,-9.985455799,-33.55890537,-40.77740135,-35.78467316,-6.498817878,-0.014897032,-0.005536649,-0.012137443,-0.021409306,0.013781129432281533,5.737812534083152E-4,9.903137938490191,-0.254205463,-0.196911299,-0.99516551,0.013376047382655652,0.008053503,0.096962748,0.018630051,0.025063578,2.9471047179212846,Home
22,-76.75,9.879892826080322,-0.255568988,-0.198006074,-1.01E-04,-0.001816233,4.8037503791737904E-4,0,0.22627416253089905,1.1705831289291382,3.938999891281128,0.015969786792993546,0,160.1999969482422,-86.9154904,40.3848558,-103.9270398,-9.975573797,-33.47496937,-40.80631554,-35.77588932,-6.41500391,-0.010682569,-0.003069202,-0.011530347,-0.021480473,0.014065796097975623,6.330868238311948E-4,9.879892826080322,-0.255568988,-0.198006074,-0.995156165,0.013623850094606576,0.008155683,0.097015548,0.018883116,0.02553601,2.9469901381187067,Home
23,-76.33333333,9.883408740886207,-0.255094059,-0.193473068,-1.25E-04,-0.001804372,2.550138951758447E-4,0,0.21931712329387665,1.180509090423584,3.927999973297119,0.005825332,0,160.1999969482422,-86.9154904,40.3848558,-103.89166,-9.934947748,-33.55963741,-40.77203327,-35.73538521,-6.499427905,-1.18E-04,-5.65E-04,-0.007699675,-0.021504195,0.014077657232404624,4.077256997387169E-4,9.883408740886207,-0.255094059,-0.193473068,-0.995161883,0.013743902,0.008101689,0.096944479,0.018797143986358227,0.025786819533236974,2.9471314902444488,Home
24,-75.375,9.888028858,-0.258117031,-0.195517422,-2.43E-04,-0.001579011,3.26180575162317E-4,45,0.22627416253089905,1.1905087232589722,3.9159998893737793,0.22085055708885193,194.26866149902344,160.1999969482422,-86.9154914,40.3848526,-103.873726,-9.94556181,-33.52633133,-40.75361126,-35.74660912,-6.466365886,0.002305503,-0.003324635,-0.00981628,-0.021622806,0.014303018334457308,4.788923644668703E-4,9.888028858,-0.258117031,-0.195517422,-0.995164697,0.013747750446923728,0.00808234,0.096916788,0.018758651791411698,0.025798767570008353,2.9471875440727158,Home
25,-71.33333333,9.893639249709047,-0.255886828,-0.196121435,-2.79E-04,-0.001733205,3.26180575162317E-4,45,0.31144821643829346,1.200515866279602,3.9089999198913574,0.2575581967830658,183.81275939941406,160.1999969482422,-86.9154913,40.38485,-103.9315541,-9.95410182,-33.50302933,-40.81265942,-35.75466103,-6.443063922,0.001770871,-5.48E-05,-0.009802875,-0.02165839,0.014148823953079946,4.7889236616223906E-4,9.893639249709047,-0.255886828,-0.196121435,-0.995161622,0.013721976447307948,0.008123499,0.09694866,0.018836397,0.025738880996709887,2.947123078466619,Home
26,-83.55555556,9.913786536281549,-0.254603298,-0.194634633,-2.67E-04,-0.001697622,3.973472438463308E-4,45,0.2690724730491638,1.2105317115783691,3.990000009536743,0.16144908964633942,180.13992309570312,160.1999969482422,-86.9154912,40.3848491,-103.9400939,-9.917501783,-33.47716526,-40.82010128,-35.71769535,-6.417199922,0.013510491084126592,-0.001037406,-0.008537588,-0.021646528,0.014184407293073182,5.500590461487114E-4,9.913786536281549,-0.254603298,-0.194634633,-0.995164203,0.013669269484947028,0.008111096,0.096930697,0.018800975338926593,0.025636711763670144,2.9471607648053215,Home
27,-77.5,9.950704028305498,-0.248621241,-0.197375925,-2.47E-04,-0.001785554,2.3494125567734815E-4,0,0.32557642459869385,1.2205398082733154,3.9769999980926514,0.027286414057016373,0,160.1999969482422,-86.9154913,40.3848497,-103.8843403,-9.949587784,-33.47521347,-40.76520153,-35.74856121,-6.414881902,0.017388600569504958,0.001484152,-0.010107928,-0.021626342,0.014096475313775815,3.8765304466673674E-4,9.950704028305498,-0.248621241,-0.197375925,-0.995163721,0.013436008226842834,0.008155273,0.096964454,0.018844383159795634,0.025163153311810814,2.9470973565028262,Home
28,-77.77777778,9.952701874149655,-0.250363589,-0.195935585,-2.08E-04,-0.001590872,3.973472619302643E-4,45,0.3189043700695038,1.230499029159546,3.9690001010894775,0.10567276179790497,348.4864501953125,160.1999969482422,-86.9154917,40.3848514,-103.8960519,-9.904935789,-33.45264355,-40.77593742,-35.70451923,-6.392433882,0.002254403,-0.002419611,-0.009338254,-0.021587223,0.014291157227154206,5.500590495394488E-4,9.952701874149655,-0.250363589,-0.195935585,-0.995168925,0.013304118,0.008122476,0.096931846,0.018752597200060353,0.024907585450457136,2.947166824803769,Home
29,-77.75,9.950553023699419,-0.249013269,-0.197956706,-1.72E-04,-0.001697622,3.617639083740781E-4,0,0.21931712329387665,1.2406367063522339,3.9809999465942383,0.034297589,0,160.1999969482422,-86.9154914,40.3848513,-103.91423,-9.953613758,-33.57439934,-40.79338326,-35.75417336,-6.514433908,-0.001229425,-0.002732717,-0.011322887,-0.02155164,0.014184407234300398,5.144756993740001E-4,9.950553023699419,-0.249013269,-0.197956706,-0.995170115,0.013220631,0.008131268,0.096930419,0.018753807575812617,0.024739723996195978,2.9471714658644594,Home
30,-81.44444444,9.945810901308523,-0.248995847,-0.194239702,-7.71E-05,-0.001899261,4.6851393287476983E-4,0,0.3189043700695038,1.2505601644515991,3.9809999465942383,0.088557348,0,160.1999969482422,-86.9154909,40.3848498,-103.8311484,-9.932141733,-33.45581535,-40.7107893,-35.73233532,-6.3958499,-0.002070631,-0.001332708,-0.008102606,-0.021456751,0.013982768283560149,6.212257216142002E-4,9.945810901308523,-0.248995847,-0.194239702,-0.995173574,0.013291835613114741,0.008103348,0.096887419,0.018710994749393278,0.024887686812327902,2.947256875269621,Home
31,-92.625,9.935345214547462,-0.25201301,-0.194913409,-1.36E-04,-0.001697622,5.871250443341374E-4,0,0.4601086974143982,1.1089972257614136,3.9000000953674316,0.021534936502575874,0,160.1999969482422,-86.9154914,40.3848506,-103.9178901,-9.924699812,-33.49595337,-40.79777523,-35.72489319,-6.435987902,-0.007066745,-0.004428796,-0.010335266,-0.021516056,0.014184407288552199,7.398368313781989E-4,9.935345214547462,-0.25201301,-0.194913409,-0.995182538,0.013285964835905334,0.008031441,0.096802196,0.018564546372271278,0.024891552415866297,2.9474300875247104,Home
32,-79.33333333,9.928537259,-0.24674833,-0.19374961,-1.36E-04,-0.001697622,3.499028078524522E-4,0,0.21931712329387665,1.1190494298934937,3.9000000953674316,0.00330306,0,160.1999969482422,-86.9154912,40.3848505,-103.8936121,-9.920795774,-33.56244339,-40.77361938,-35.72074543,-6.502477927,-0.001080087,0.001186441,-0.008118712,-0.021516056,0.014184407265947281,5.026145977221285E-4,9.928537259,-0.24674833,-0.19374961,-0.99517007,0.013354173472639426,0.008104954,0.096914858,0.018727005034395793,0.025010967609083768,2.9472002334965084,Home
33,-86.125,9.935859208,-0.248984231,-0.195772966,-2.91E-04,-0.001567149,4.210694742759744E-4,0,0.21931712329387665,1.129055142402649,3.9000000953674316,0.017176777124404907,0,160.1999969482422,-86.915491,40.3848503,-103.92277,-9.913841772,-33.45581539,-40.80289925,-35.71415741,-6.395971913,0.002162193,-0.001575188,-0.00849914,-0.021670251,0.014314879446281391,5.737812618851589E-4,9.935859208,-0.248984231,-0.195772966,-0.995164147,0.013260280740564888,0.008161834,0.09698378,0.018823703226533907,0.024811721,2.947062543294962,Home
34,-79.44444444,9.937096169851358,-0.250970506,-0.198328409,-1.01E-04,-0.001839955,2.075694637029495E-4,0,0.2126029133796692,1.1389960050582886,3.9000000953674316,0.046336275,0,160.1999969482422,-86.9154914,40.3848497,-103.9159379,-9.922503777,-33.50925137,-40.79618919,-35.72196548,-6.449407911,-4.17E-04,-0.004323188,-0.011245025,-0.021480473,0.014042073905974338,3.6028126487508416E-4,9.937096169851358,-0.250970506,-0.198328409,-0.99516803,0.013241777,0.008141939,0.096948095,0.018779603854834456,0.024779421,2.9471351845750533,Home
35,-91,9.936599712927364,-0.247482909,-0.196074973,-1.60E-04,-0.001579011,2.7873613012647163E-4,0,0.3962322473526001,1.1490219831466675,3.9000000953674316,0.022487167,0,160.1999969482422,-86.9154914,40.3848497,-103.8738478,-9.912499771,-33.47960545,-40.75373329,-35.7124493,-6.41976191,-4.88E-04,3.563308889426074E-4,-0.00889811,-0.021539779,0.014303018366104191,4.3144792451713126E-4,9.936599712927364,-0.247482909,-0.196074973,-0.995166871,0.013322651178295751,0.008156621,0.096947673,0.018824574,0.024937564796469743,2.9471337494340917,Home
36,-94.11111111,9.910656188298198,-0.251112798,-0.195935585,-1.72E-04,-0.001673899,4.21069469754991E-4,0,0.3047950267791748,1.1589713096618652,3.881000042,0.021648552268743515,0,160.1999969482422,-86.9154909,40.3848499,-103.9537584,-9.9691078,-33.46911354,-40.83339931,-35.76893509,-6.40926991,-0.015581251,-0.003238235,-0.008949649,-0.02155164,0.014208129480553484,5.737812590595443E-4,9.910656188298198,-0.251112798,-0.195935585,-0.995167993,0.013294569542179408,0.008176204,0.096938405,0.018857858641055023,0.024878042542095323,2.9471525706133797,Home
37,-73.625,9.882221110816142,-0.256005889,-0.196632524,-2.00E-04,-0.001762059,3.406648219634707E-4,0,0.2121320366859436,1.169008731842041,3.881000042,0.079357781,0,160.1999969482422,-86.9154908,40.3848487,-103.9487556,-9.970327768,-33.51620537,-40.82851933,-35.77039925,-6.456361909,-0.013080606,-0.004839734,-0.009500564,-0.021579354,0.014119969501804847,4.933766120722374E-4,9.882221110816142,-0.256005889,-0.196632524,-0.99516718,0.013611679162400274,0.008186925,0.096901724,0.018940006794694524,0.025507890816348102,2.9472184502161465,Home
38,-82.44444444,9.880731304872382,-0.25551803,-0.195796198,-1.25E-04,-0.001673899,4.21069469754991E-4,0,0.3047950267791748,1.1789798736572266,3.881000042,0.052812762558460236,0,160.1999969482422,-86.9154907,40.3848484,-103.912644,-9.952027779,-33.54951141,-40.79277325,-35.75246529,-6.4894239,-0.002399639,-0.00158386,-0.008739003,-0.021504195,0.014208129403696767,5.737812777086008E-4,9.880731304872382,-0.25551803,-0.195796198,-0.995169137,0.013697899905150955,0.008172154,0.096870702,0.018926578510588814,0.025682978,2.9472791083808083,Home
39,-108.4444444,9.885325413305782,-0.258297073,-0.194053852,1.779166773612638E-5,-0.001839955,2.5501390421781147E-4,0,0.31144821643829346,1.1889575719833374,3.881000042,0.027557954,0,160.1999969482422,-86.9154909,40.3848483,-103.9113018,-9.967521763,-33.5883073,-40.79204136,-35.76710526,-6.528463879,0.001534925,-0.002880472,-0.009556074,-0.021361862,0.014042073905974338,4.0772569295724183E-4,9.885325413305782,-0.258297073,-0.194053852,-0.995182455,0.013757305400608813,0.008037403,0.096736723,0.018666349767336568,0.025829896,2.947550392,Home
40,-100.625,9.891420688,-0.257835352,-0.197050687,-6.52E-05,-0.001875538,4.210694742759744E-4,0,0.31144821643829346,1.1989637613296509,3.890000104904175,0.06707266,0,160.1999969482422,-86.9154907,40.3848474,-103.9629079,-9.945683784,-33.51071526,-40.8426712,-35.74551121,-6.4509939,0.002597874,-0.0022796,-0.011916443,-0.02144489,0.014006490584065034,5.737812652758965E-4,9.891420688,-0.257835352,-0.197050687,-0.995177875,0.013760622825871394,0.008064126,0.096781123,0.018721358470835732,0.025830485342631063,2.9474603967759214,Home
41,-77.88888889,9.915346006745274,-0.255503511,-0.196469905,-2.08E-04,-0.001472261,4.092083556704151E-4,0,0.21931712329387665,1.2090622186660767,4.281000137329102,0.036340117,0,160.1999969482422,-86.9154907,40.3848473,-103.8578659,-9.959103794,-33.49729538,-40.73738533,-35.75954113,-6.437329898,0.014423370361328125,-0.001350787,-0.009468805,-0.021587223,0.014409768358957999,5.619201494959518E-4,9.915346006745274,-0.255503511,-0.196469905,-0.995169763,0.013684824326084656,0.00815359,0.096867755,0.018886984,0.025660614,2.9472858280811494,Home
42,-82.875,9.950089931488037,-0.249049122,-0.197085757,-5.34E-05,-0.001875538,5.040972615655476E-4,0,0.31827661395072937,1.218984842300415,4.257999897003174,0.014263399876654148,0,160.1999969482422,-86.9154907,40.3848473,-103.943144,-9.930677786,-33.48875553,-40.82412743,-35.73087101,-6.428667879,0.016635024,0.001861988,-0.010177143,-0.021433029,0.014006490543941307,6.568090604771905E-4,9.950089931488037,-0.249049122,-0.197085757,-0.995175191,0.013455553513779802,0.008154923,0.096843785,0.018844434919143185,0.025204406,2.9473394213370905,Home
43,-87.88888889,9.945360831843997,-0.249062637,-0.194425551,-1.96E-04,-0.001555288,3.854861410642133E-4,0,0.3047950267791748,1.2290565967559814,4.329999923706055,0.010998521000146866,0,160.1999969482422,-86.9154907,40.3848472,-103.9121558,-9.915915813,-33.45508354,-40.79191921,-35.71586548,-6.395361938,-7.51E-04,-0.002335821,-0.007830038,-0.021575362,0.014326740607836293,5.38197927543152E-4,9.945360831843997,-0.249062637,-0.194425551,-0.995182865,0.013297940342171678,0.008122368,0.096789592,0.018747607,0.024898002032660745,2.947452903951256,Home
44,-86.125,9.946542693573294,-0.247973669,-0.195261878,-3.38E-04,-0.001187594,3.6176391515555314E-4,0,0.3889729976654053,1.2390695810317993,4.333000183105469,0.026833394542336464,0,160.1999969482422,-86.9154907,40.3848477,-103.8710422,-9.936899757,-33.55475735,-40.75080517,-35.73684917,-6.494669909,-2.86E-04,-6.91E-05,-0.007068324,-0.021717695,0.014694435065340938,5.144757010693689E-4,9.946542693573294,-0.247973669,-0.195261878,-0.995170347,0.013244917073730126,0.008193151,0.096919524,0.018881466510949782,0.024776265187894258,2.947191270809729,Home
45,-80.55555556,9.946446835416035,-0.245354342,-0.196330517,-7.71E-05,-0.001555288,3.9734725514878924E-4,0,0.3189043700695038,1.2490218877792358,4.323999881744385,0.052071318,0,160.1999969482422,-86.9154908,40.3848483,-103.8889756,-9.925309772,-33.48314358,-40.7694714,-35.7259914,-6.422933879,8.635752409407236E-4,-8.20E-04,-0.007751538,-0.021456751,0.014326740540021542,5.500590416277279E-4,9.946446835416035,-0.245354342,-0.196330517,-0.995158202,0.013203181,0.008261259,0.09704407,0.019012036905126664,0.024677592013212082,2.9469402970619574,Home
46,-60.75,9.942846011189582,-0.249149754,-0.198351639,-2.19E-04,-0.001638316,3.024583447326734E-4,45,0.31827661395072937,1.1086679697036743,3.9830000400543213,0.11932988464832306,351.9526672363281,160.1999969482422,-86.9154911,40.3848497,-103.9325297,-9.936533775,-33.48143547,-40.81180527,-35.73477531,-6.421469908,-0.002517885,-0.003764891,-0.009538127,-0.021599084,0.014243712852193603,4.55170153816529E-4,9.942846011189582,-0.249149754,-0.198351639,-0.995158197,0.013177281064749921,0.008228385,0.097050315,0.018941709753668424,0.024632291597070047,2.9469291538868134,Home
47,-70,9.940714558351386,-0.24802594,-0.195819428,0,-0.001738565,5.051237038479975E-4,0,0.31827661395072937,1.118688702583313,3.9179999828338623,0.055959150195121765,0,160.1999969482422,-86.9154911,40.3848499,-103.8972721,-9.973621769,-33.57818142,-40.77740128,-35.77320522,-6.517971902,-0.001646931,-0.003092663,-0.008808812,-0.021379654,0.014143464,6.578355023520999E-4,9.940714558351386,-0.24802594,-0.195819428,-0.995161865,0.013176255465413515,0.00817036,0.097017839,0.018825163133442402,0.024642153571431454,2.946995872717637,Home
48,-71.375,9.935397453678464,-0.248836131,-0.198374869,-5.93E-06,-0.001733205,1.7198613953315516E-4,0,0.31144821643829346,1.128649353981018,3.9149999618530273,0.026670094579458237,0,160.1999969482422,-86.9154911,40.3848499,-103.9564415,-9.912987728,-33.57635143,-40.8360833,-35.7124493,-6.516141882,-0.004719669,-0.00308635,-0.011161119,-0.021385584,0.014148823894307163,3.246979294028314E-4,9.935397453678464,-0.248836131,-0.198374869,-0.99515872,0.013212893682631474,0.008170935,0.097045009,0.018834119,0.024714461,2.9469403780779793,Home
49,-113.2222222,9.928988549315815,-0.247416119,-0.195865891,-2.19E-04,-0.002278816,-2.31E-04,0,0.31144821643829346,1.1386128664016724,3.9019999504089355,0.005157155,0,160.1999969482422,-86.915491,40.3848498,-103.9076422,-9.960933781,-33.53182144,-40.78764919,-35.76015118,-6.471977906,-0.001341181,0.00250792,-0.009964926,-0.021599084,0.013603212804651087,-7.86E-05,9.928988549315815,-0.247416119,-0.195865891,-0.995166617,0.013427739592214811,0.008094074,0.096940596,0.018720303,0.025158981711251065,2.9471470268027296,Home
50,-140.25,9.935783701035582,-0.249698593,-0.191544872,-4.15E-05,-0.001401094,5.989861471162549E-4,0,0.3465544581413269,1.1486281156539917,3.9000000953674316,0.002087162,0,160.1999969482422,-86.915491,40.3848498,-103.943388,-9.944097815,-33.49766136,-40.82376141,-35.7445351,-6.437817898,0.002893392,-1.03E-04,-0.007087232,-0.021421167,0.014480935047986438,7.516979398115457E-4,9.935783701035582,-0.249698593,-0.191544872,-0.99517616,0.013400967422764278,0.008022265,0.096852692,0.018569896,0.025121319,2.947326127765248,Home
51,-146.4444444,9.918733019095201,-0.253604686,-0.191080693,-1.36E-04,-0.001946705,3.024583515141485E-4,0,0.2983286678791046,1.158618688583374,3.9000000953674316,0.019062327221035957,0,160.1999969482422,-86.915491,40.3848495,-103.9846243,-9.977891798,-33.51681553,-40.8645092,-35.77698727,-6.456727896,-0.011090306,-0.004139445,-0.008192696,-0.021516056,0.013935323922162495,4.5517014533968513E-4,9.918733019095201,-0.253604686,-0.191080693,-0.995186814,0.013373083091404253,0.007947022,0.096753235,0.018412155,0.025082250406007166,2.9475285219914706,Home
52,-149,9.880989722835208,-0.261299718,-0.192079192,-1.96E-04,-0.001946705,1.9570834735788188E-4,0,0.1984943300485611,1.1687560081481934,3.9000000953674316,0.028555739670991898,0,160.1999969482422,-86.9154909,40.3848492,-103.9416798,-10.00790375,-33.63271545,-40.82107727,-35.80870731,-6.572871885,-0.017889023,-0.005396106,-0.011639214,-0.021575362,0.013935323949288396,3.4842013666243517E-4,9.880989722835208,-0.261299718,-0.192079192,-0.995198038,0.013736892808047891,0.007817346,0.096597183,0.018220603158607067,0.025834446031491733,2.947836922210397,Home
53,-133.8888889,9.878986080873359,-0.258581657,-0.190360076,1.719861214492217E-4,-0.001282483,0.001156458,0,0.23345234990119934,1.1785862445831299,3.9000000953674316,0.025704961270093918,0,160.1999969482422,-86.9154909,40.384849,-104.0135378,-9.955321798,-33.47143135,-40.89354534,-35.75490532,-6.411221862,-0.003222197,-0.002622154,-0.008689033,-0.021207667,0.014599546,0.00130917,9.878986080873359,-0.258581657,-0.190360076,-0.995180312,0.013754633363806506,0.007886722,0.096771334,0.018366683,0.025853103713937176,2.947484752506886,Home
54,-154.5555556,9.884149190291618,-0.256540206,-0.195238646,-1.84E-04,-0.001768788,4.5665280522724376E-4,45,0.1984943300485611,1.1885675191879272,3.9000000953674316,0.17158380150794983,355.5101318359375,160.1999969482422,-86.9154912,40.3848517,-103.9525383,-9.93543581,-33.47350536,-40.83217934,-35.73416534,-6.413661914,0.001770853,-0.003923865,-0.010707187,-0.021563501,0.014113240649254576,6.093646092249931E-4,9.884149190291618,-0.256540206,-0.195238646,-0.995159995,0.013657822825231598,0.008058033,0.096979956,0.018694360333594305,0.025623304461969913,2.947063365,Home
55,-136.375,9.889051048501024,-0.255599338,-0.194448784,-2.31E-04,-0.001709483,4.8037502887541227E-4,0,0.2906888425350189,1.1986210346221924,3.881000042,0.014058326371014118,0,160.1999969482422,-86.915491,40.3848505,-103.9538802,-9.951051769,-33.47838558,-40.83327721,-35.75075737,-6.418541923,0.002117194,-0.001991972,-0.009222545,-0.021610945,0.014172546140560247,6.330868385243908E-4,9.889051048501024,-0.255599338,-0.194448784,-0.995159198,0.013665930078663294,0.008084213,0.096984829,0.018748190434812344,0.025634266490351807,2.947052724153093,Home
56,-148.2222222,9.895044808248871,-0.254696223,-0.195703273,-1.29E-04,-0.001632842,3.8765306817367673E-4,45,0.2983286678791046,1.2086408138275146,4.446000099182129,0.11115401238203049,358.4250488,160.1999969482422,-86.9154911,40.384852,-103.9831601,-9.936899824,-33.46557545,-40.8630452,-35.73623913,-6.405853901,0.004012658,-0.001696527,-0.009691024,-0.021508871,0.014249187,5.403648801103162E-4,9.895044808248871,-0.254696223,-0.195703273,-0.995160221,0.013639200031040953,0.008110049,0.09697594,0.018794197033947475,0.025576205691322684,2.947070587139863,Home
57,-146.375,9.934325968177573,-0.251086664,-0.196609293,-1.48E-04,-0.001602733,2.905972396900642E-4,0,0.2983286678791046,1.2186113595962524,4.368000030517578,0.017197693,0,160.1999969482422,-86.915491,40.3848516,-103.9776699,-9.902007751,-33.50766548,-40.85694519,-35.70305542,-6.447455912,0.020625003,2.3886532459444212E-4,-0.009274892,-0.021527917,0.014279296169581922,4.433090521646573E-4,9.934325968177573,-0.251086664,-0.196609293,-0.995154173,0.013530828917706475,0.008170995,0.097047985,0.018896273382514425,0.025347277,2.9469268368285837,Home
58,-132,9.952516195,-0.248069499,-0.194843716,-6.52E-05,-0.001579011,2.905972396900642E-4,0,0.20518285036087036,1.2287073135375977,4.446000099182129,0.036653496,0,160.1999969482422,-86.9154909,40.384851,-103.9052022,-9.974963722,-33.50461529,-40.7848431,-35.77454731,-6.444649906,0.009667387,4.3209171989589063E-4,-0.00800707,-0.021444889,0.014303018402272058,4.4330905103441147E-4,9.952516195,-0.248069499,-0.194843716,-0.995161231,0.013348255,0.008136547,0.097003834,0.018790990873737243,0.024991380864555397,2.947020776063493,Home
59,-134.625,9.950707055989978,-0.248438296,-0.196330518,-1.48E-04,-0.001282483,2.668750109557894E-4,0,0.1984943300485611,1.2386188507080078,4.435999870300293,0.025105604901909828,0,160.1999969482422,-86.915491,40.3848515,-103.9252103,-9.940559769,-33.45300953,-40.80509529,-35.74209526,-6.392555885,-1.99E-04,-0.001938957,-0.009349145,-0.021551639,0.014362323947829528,4.907534960702568E-4,9.950707055989978,-0.248438296,-0.196330518,-0.995161269,0.013238339151427584,0.008146806,0.097017642,0.018790349,0.024770325718863496,2.9469953902716775,Home
60,-135,9.946963912075006,-0.247837185,-0.195749736,1.5864237008200399E-4,-1.23E-04,-9.64E-05,0,0.20518285036087036,1.248690128326416,4.454999923706055,0.027214512,0,160.1999969482422,-86.915491,40.3848518,-103.9060563,-9.926651793,-33.4914394,-40.78606316,-35.72757713,-6.431351924,-0.00174078,-2.44E-04,-0.003430734,-0.021373723,0.014231851677075752,5.144757191533024E-4,9.946963912075006,-0.247837185,-0.195749736,-0.995134711,0.013322470040575973,0.008406974,0.097255988,0.019330718455094736,0.024882605,2.9465079446440763,Home
61,-135,9.943351690585796,-0.246506748,-0.194577895,6.37534743590841E-5,-2.82E-05,5.7822904318968934E-5,0,0.24041630327701569,1.1079062223434448,3.8910000324249268,0.096075058,0,160.1999969482422,-86.9154914,40.384853,-103.9069099,-9.946415758,-33.49814938,-40.78777134,-35.74575531,-6.438061905,-0.001468094,7.866683226187253E-4,5.255370464139771E-4,-0.021468612,0.014326740625920226,6.686701734315206E-4,9.943351690585796,-0.246506748,-0.194577895,-0.995120643,0.013334674172971434,0.008552277,0.097385558,0.019625635727227312,0.024876047,2.9462436703802313,Home
62,-119.2222222,9.940833721346069,-0.248063691,-0.195052797,-1.14E-04,-2.82E-05,-6.08E-05,0,0.2126029133796692,1.1179403066635132,3.8889999389648438,0.063982762,0,160.1999969482422,-86.9154913,40.3848534,-103.8618922,-9.907741785,-33.56793346,-40.74189911,-35.70708118,-6.507967896,-0.001718993,-4.18E-04,1.0331524807272605E-4,-0.021646528,0.014326740589752359,5.500590568860469E-4,9.940833721346069,-0.248063691,-0.195052797,-0.995120003,0.013347007,0.008547431,0.097390831,0.019618531707131747,0.024901436,2.946232890619815,Home
63,-134.875,9.937560970343432,-0.24986121,-0.195401266,-5.49E-05,-1.11E-04,-2.03E-04,0,0.23345234990119934,1.1279343366622925,3.8910000324249268,0.013325429521501064,0,160.1999969482422,-86.9154913,40.3848533,-103.9217939,-9.983991785,-33.51632721,-40.8020454,-35.7840633,-6.45636189,-0.001571183,-0.00114387,-5.47E-04,-0.021587223,0.014243713,4.0772571160629825E-4,9.937560970343432,-0.24986121,-0.195401266,-0.995120093,0.013408185561522118,0.008535316,0.097382562,0.019606169240856633,0.025025738421285037,2.946248272090282,Home
64,-138.8888889,9.936277408044315,-0.247352232,-0.194100314,2.0608681794346393E-4,-2.42E-04,4.596178684365547E-5,0,0.18439088761806488,1.1378986835479736,4.896999835968018,0.009607006,0,160.1999969482422,-86.9154913,40.3848533,-103.8819007,-9.983991766,-33.5803775,-40.76202911,-35.78357498,-6.520533881,-0.001151002,0.002043144,9.006840511433129E-5,-0.021326278,0.014113241,6.568090582166989E-4,9.936277408044315,-0.247352232,-0.194100314,-0.995125099,0.013438928,0.008502614,0.097330024,0.019545751524347704,0.025094340437824287,2.9463539493894113,Home
65,-132.7777778,9.935470062552147,-0.248534123,-0.196260824,2.1794792920242526E-4,-9.93E-05,3.41006772800629E-5,0,0.19798989593982697,1.148018717765808,6.314000129699707,0.009504898,0,160.1999969482422,-86.9154913,40.3848534,-103.945584,-9.905789814,-33.44922756,-40.82595726,-35.70622707,-6.38950593,-1.02E-04,-7.28E-04,-0.001383779,-0.021314417,0.014255573945933754,6.449479486531063E-4,9.935470062552147,-0.248534123,-0.196260824,-0.995121415,0.013358618919421169,0.008536756,0.097375787,0.019599172,0.024926928043799493,2.946263088763339,Home
66,-125.875,9.919515924546324,-0.248505085,-0.193960925,-3.52E-05,-1.17E-04,-2.94E-04,0,0.191049725,1.1578803062438965,6.916999816894531,0.010278777219355106,0,160.1999969482422,-86.9154913,40.3848535,-103.9100817,-9.921527729,-33.48631542,-40.78923519,-35.72257545,-6.426349888,-0.010721583,-3.80E-04,0.001146208,-0.021567606,0.014237440110614093,3.1717067255298246E-4,9.919515924546324,-0.248505085,-0.193960925,-0.9951211,0.013387511358954586,0.008562274,0.097372671,0.019655551564378235,0.024979520893584076,2.9462680174754214,Home
67,-137.5555556,9.883150295,-0.256505359,-0.196864836,-4.30E-05,-3.01E-04,-2.51E-04,0,0.191049725,1.1679191589355469,7.922999858856201,0.011433719657361507,0,160.1999969482422,-86.9154912,40.3848536,-103.9263078,-9.969595785,-33.51047134,-40.80607136,-35.76966721,-6.450383868,-0.016643672,-0.001494562,-0.002027983,-0.021575362,0.014053935031361372,3.602812603541008E-4,9.883150295,-0.256505359,-0.196864836,-0.99512479,0.013770993979810511,0.008538175,0.097283644,0.019680278701255622,0.025749308,2.946438076426682,Home
68,-142,9.880199784214057,-0.258329014,-0.195726504,1.823645937301725E-4,-1.35E-04,-1.68E-04,0,0.16970562934875488,1.1778514385223389,8.928999900817871,0.006080741,0,160.1999969482422,-86.9154913,40.3848536,-103.9174022,-9.964959822,-33.46459934,-40.7965554,-35.76478745,-6.40475594,-0.003289149,-2.73E-04,-0.001151707,-0.021350001,0.014219990614982485,4.433090465134281E-4,9.880199784214057,-0.258329014,-0.195726504,-0.995127377,0.013943401,0.008524867,0.097233787,0.019686172,0.02609607,2.9465343396640518,Home
69,-141.2222222,9.887192448366035,-0.260184615,-0.198258714,-1.93E-05,-8.75E-05,-1.08E-04,0,0.16970562934875488,1.1878623962402344,9.93500042,0.002863034,0,160.1999969482422,-86.9154913,40.3848536,-103.9038599,-9.946659765,-33.47460339,-40.78337914,-35.74685337,-6.414759898,0.002877717,-6.46E-04,-0.00169294,-0.021551639,0.014267435053236854,5.02614601112866E-4,9.887192448366035,-0.260184615,-0.198258714,-0.995118398,0.014027366785386812,0.008616035,0.097305483,0.019885991582448043,0.026244014718578856,2.946385793315554,Home
70,-136.5,9.892396408377342,-0.256246911,-0.195494191,6.37534743590841E-5,-1.59E-04,1.0526734652919966E-4,0,0.17691805958747864,1.1978602409362793,9.93500042,0.005912094,0,160.1999969482422,-86.9154913,40.3848537,-103.9149622,-9.982649765,-33.48106934,-40.79521332,-35.7835751,-6.421347899,0.003028166,0.001224283,9.76031121698398E-4,-0.021468612,0.014196268373250383,7.161146162068743E-4,9.892396408377342,-0.256246911,-0.195494191,-0.995121135,0.013916183018930328,0.008617089,0.09729341,0.019866036359690926,0.026022737900030266,2.9464128156310148,Home
71,-137.5555556,9.91240881,-0.254148249,-0.197983067,-3.11E-05,3.113542758018791E-5,-8.45E-05,0,0.21931712329387665,1.2079659700393677,10.810999870300293,0.003580344,0,160.1999969482422,-86.9154913,40.3848537,-103.9496099,-9.954955769,-33.48350937,-40.8291293,-35.75478325,-6.423543892,0.012562029570051767,0.00213131,-5.45E-04,-0.021563501,0.014386046198603598,5.263368315425095E-4,9.91240881,-0.254148249,-0.197983067,-0.995118433,0.013860233164238699,0.008659786,0.097325221,0.019940934,0.025902409196912664,2.946349197221034,Home
72,-136.875,9.948171902628777,-0.249930906,-0.196818376,4.447915238662831E-6,7.413199976158952E-6,-1.32E-04,0,0.17691805958747864,1.217934012413025,10.810999870300293,0.001612763,0,160.1999969482422,-86.9154913,40.3848537,-103.9731566,-9.959957771,-33.5859893,-40.85365108,-35.76002926,-6.526023903,0.016608081,0.00244505,9.213633907651438E-4,-0.021527917,0.014362323938787561,4.7889238594154133E-4,9.948171902628777,-0.249930906,-0.196818376,-0.995118354,0.013600572093742566,0.008668074,0.097361941,0.019907604,0.025383201527219373,2.946281671524048,Home
73,-136.1111111,9.940450372047795,-0.249692783,-0.19600528,-6.67E-05,5.485764840274181E-5,-6.08E-05,0,0.17691805958747864,1.2279468774795532,10.810999870300293,0.005533876,0,160.1999969482422,-86.9154913,40.3848538,-103.9359458,-9.952515793,-33.44349354,-40.81546535,-35.75209927,-6.383649898,-0.001708521,3.4760647607081144E-4,9.78514696787862E-4,-0.021599084,0.014409768349916032,5.500590574511698E-4,9.940450372047795,-0.249692783,-0.19600528,-0.99512229,0.013475980302228512,0.00863376,0.097342085,0.019814412389854784,0.025142289,2.946325538227859,Home
74,-142.25,9.947779933225762,-0.250261951,-0.196864837,-6.67E-05,-1.82E-04,-4.64E-04,0,0.18384777009487152,1.237930417060852,10.810999870300293,0.003673253,0,160.1999969482422,-86.9154913,40.3848538,-103.9282602,-9.95824976,-33.41091934,-40.80875523,-35.75844322,-6.350831871,0.003900287,0.001047983,-2.06E-04,-0.021599084,0.014172546149602214,1.4678125373693635E-4,9.947779933225762,-0.250261951,-0.196864837,-0.995129725,0.01353882,0.00860832,0.097259546,0.019773949100409898,0.025273968,2.9464905123108798,Home
75,-132.8888889,9.947724721964123,-0.250366492,-0.193844769,-9.04E-05,-5.50E-04,-1.91E-04,0,0.191049725,1.2479873895645142,10.810999870300293,0.001698336,0,160.1999969482422,-86.9154913,40.3848538,-103.9203304,-9.934215822,-33.50180939,-40.80119133,-35.73428726,-6.441843915,-6.53E-06,9.153631416339319E-4,-1.40E-04,-0.021622806,0.013804851714702486,4.1958681099767825E-4,9.947724721964123,-0.250366492,-0.193844769,-0.995147415,0.013512225071131026,0.008481248,0.097093053,0.019511521622104552,0.025249019,2.9468289579002604,Home
76,-131.625,9.944469396350453,-0.247607777,-0.193217525,2.3494121426035865E-5,4.93376642295446E-4,2.3494121649911485E-4,0,0.3324154019355774,1.107130527496338,9.93500042,0.031940714,0,160.1999969482422,-86.9154915,40.3848543,-103.9025179,-9.953857794,-33.52145123,-40.7811834,-35.75392914,-6.461729913,-0.001276988,0.001827347,0.001515941,-0.021508871,0.014848287360599408,8.457884905510582E-4,9.944469396350453,-0.247607777,-0.193217525,-0.995144144,0.013432486063370911,0.008507469,0.097135433,0.019549242704390332,0.025084380669376023,2.9467450953446903,Home
77,-145.4444444,9.942657359595438,-0.24628069,-0.193589226,-5.49E-05,7.857987148578739E-5,-2.27E-04,0,0.41109609603881836,1.1171629428863525,9.93500042,0.022233002,0,160.1999969482422,-86.9154915,40.3848544,-103.9017863,-9.892491741,-33.58855125,-40.78093914,-35.69305149,-6.528585896,-0.001021959,0.001369458,0.001296429,-0.021587223,0.014433490591648133,3.840034840022693E-4,9.942657359595438,-0.24628069,-0.193589226,-0.995138459,0.013345144734292934,0.008539797,0.097202994,0.019598270865898687,0.024902916,2.9466106521273123,Home
78,-135.6666667,9.938748693003237,-0.247991093,-0.195424498,2.1794792976754818E-4,-6.38E-05,-1.20E-04,0,0.3894868493080139,1.1271580457687378,9.93500042,0.010587929,0,160.1999969482422,-86.9154915,40.3848544,-103.9020301,-9.877363777,-33.51181339,-40.78276928,-35.67828911,-6.451481924,-0.001913497,-1.70E-04,-9.65E-04,-0.021314417,0.014291157,4.907534977656256E-4,9.938748693003237,-0.247991093,-0.195424498,-0.995139384,0.013355984886005087,0.008520301,0.097193771,0.019561337072004394,0.024928474,2.946629410808526,Home
79,-135.75,9.937418678431834,-0.247834282,-0.195424497,7.561458787853712E-5,7.413201106404795E-6,1.0378452501648549E-5,0,0.38209945,1.137199878692627,9.93500042,0.003906633,0,160.1999969482422,-86.9154915,40.3848544,-103.9061779,-9.922747793,-33.50937351,-40.78606331,-35.72233135,-6.449407864,-9.99E-04,-1.42E-04,6.64944787627285E-5,-0.021456751,0.014362323956871495,6.212257250049378E-4,9.937418678431834,-0.247834282,-0.195424497,-0.995133818,0.013357735474060462,0.008573808,0.097245819,0.019669516699262035,0.024920513,2.946523423,Home
80,-144.1111111,9.937964680125413,-0.247941726,-0.195006335,1.942257044240109E-4,1.3788543060620867E-4,4.596179306000761E-5,0,0.38288378715515137,1.1472103595733643,9.93500042,0.001069068,0,160.1999969482422,-86.9154915,40.3848544,-103.9491225,-9.910547819,-33.49583164,-40.82876316,-35.70988712,-6.435621915,-1.82E-05,-6.96E-04,8.159734091712433E-4,-0.02133814,0.014492796146247572,6.568090621725593E-4,9.937964680125413,-0.247941726,-0.195006335,-0.995131972,0.013338206580035317,0.008592622,0.097265693,0.019703656941362956,0.024877580461426844,2.9464834963233724,Home
81,-133.125,9.923320275086622,-0.248028146,-0.194347816,7.561458787853712E-5,-1.71E-04,2.223956997696202E-5,0,0.3041381239891052,1.1570963859558105,9.93500042,0.004937535,0,160.1999969482422,-86.9154915,40.3848543,-103.9010542,-9.951783772,-33.48106945,-40.78106144,-35.75136726,-6.421347899,-0.009499272,-1.65E-04,7.970741072904717E-4,-0.021456751,0.014184407274989248,6.330868385243908E-4,9.923320275086622,-0.248028146,-0.194347816,-0.995135911,0.013373795616467602,0.008564148,0.097223035,0.019652846531526557,0.024954811,2.9465690677605787,Home
82,-133.3333333,9.886472350185358,-0.253929588,-0.195772967,1.2305903460975122E-4,-3.01E-04,-1.08E-04,0,0.38209945,1.1670864820480347,9.93500042,0.003654803,0,160.1999969482422,-86.9154915,40.3848543,-103.9497319,-9.953369732,-33.48326557,-40.82961731,-35.75295341,-6.423299923,-0.017304856,-0.002546896,-0.001644925,-0.021409306,0.014053935094655138,5.026146078943411E-4,9.886472350185358,-0.253929588,-0.195772967,-0.99514381,0.013569150391278916,0.008510701,0.097119663,0.019581948,0.025356115068046792,2.946773341558512,Home
83,-138.875,9.881407784026804,-0.254794956,-0.194123545,5.189236366524569E-5,-1.11E-04,-1.33E-05,0,0.36124783754348755,1.177065134048462,9.93500042,0.006844062,0,160.1999969482422,-86.9154915,40.3848542,-103.9485117,-9.911401758,-33.47472557,-40.8281535,-35.71098534,-6.414759889,-0.004102883,-7.97E-04,1.1703574541703011E-4,-0.021480473,0.014243712829588686,5.975035053126297E-4,9.881407784026804,-0.254794956,-0.194123545,-0.995142611,0.013736859253309305,0.008525213,0.097107128,0.019643242136367315,0.025687374,2.9467940307357936,Home
84,-124.4444444,9.885798593169277,-0.254638143,-0.195029566,4.4479163689086735E-6,-1.47E-04,-2.27E-04,0,0.4455333948135376,1.187095046043396,9.93500042,0.005726312,0,160.1999969482422,-86.9154914,40.3848542,-103.949854,-9.934825783,-33.5008334,-40.82986134,-35.7355072,-6.440013895,0.001440622,3.455055570139468E-4,-8.70E-04,-0.021527917,0.014208129507679385,3.8400348852325267E-4,9.885798593169277,-0.254638143,-0.195029566,-0.995143379,0.013791020353803935,0.00852701,0.097091448,0.019656982,0.025795144616689497,2.9468241802697044,Home
85,-108,9.893732126476696,-0.258146069,-0.192613511,-2.70E-04,-6.34E-04,-9.99E-04,0,0.2617250382900238,1.1970915794372559,9.93500042,0.007458821,0,160.1999969482422,-86.9154914,40.3848541,-103.9169138,-9.985333738,-33.49143948,-40.79594528,-35.78516155,-6.431717887,0.003697936,9.01262634075605E-4,-0.001212926,-0.021802548,0.013720569,-3.88E-04,9.893732126476696,-0.258146069,-0.192613511,-0.995162265,0.013964160748470861,0.00836126,0.096887195,0.019355342,0.026175985327706888,2.9472346764344435,Home
86,-80.77777778,9.904192054155962,-0.259598025,-0.194309395,1.3492013795699166E-4,3.113537784937082E-5,2.3573955285896374E-4,0,0.2617250382900238,1.2070645093917847,10.817000389099121,0.004220041,0,160.1999969482422,-86.9154914,40.3848541,-103.9008097,-9.95153985,-33.41970333,-40.78167145,-35.75283115,-6.359737897,0.007415355,0.001494059,-0.002476776,-0.021397445,0.014386046,8.465868372298343E-4,9.904192054155962,-0.259598025,-0.194309395,-0.995159974,0.014061540320009282,0.008365389,0.096896259,0.019382775,0.026368848473122975,2.9472139529811527,Home
87,-96.5,9.941295346010078,-0.24959986,-0.19261351,-1.93E-05,7.41319941103603E-6,-1.32E-04,0,0.2545584440231323,1.2172249555587769,10.96399974822998,0.001844721,0,160.1999969482422,-86.9154914,40.3848541,-103.8969064,-9.990091763,-33.60075146,-40.77715755,-35.7904073,-6.540541897,0.018466967980838515,0.004883716,0.001433299,-0.02155164,0.014362323943308546,4.7889237124834535E-4,9.941295346010078,-0.24959986,-0.19261351,-0.995141175,0.013707711623565665,0.008483462,0.097129523,0.019555001420158785,0.025637024489131945,2.9467507959569543,Home
88,-137.2222222,9.950465952308432,-0.252108838,-0.194448782,-3.11E-05,2.090521072019434E-4,5.782289301651051E-5,0,0.3606937825679779,1.2271413803100586,10.96399974822998,0.012064664624631405,0,160.1999969482422,-86.9154916,40.3848542,-103.866162,-9.955077791,-33.54011742,-40.74568123,-35.75441723,-6.480273914,0.006069785,5.847962157240192E-4,9.467240097453294E-4,-0.021563501,0.014563962866922894,6.686701643895538E-4,9.950465952308432,-0.252108838,-0.194448782,-0.995129125,0.013596291337343096,0.008539527,0.09726369,0.019648315,0.025401681082919965,2.946482475521495,Home
89,-134.5555556,9.950352779869894,-0.247517756,-0.195378035,-7.41E-06,3.1135430405802516E-5,-1.48E-06,0,0.29698485136032104,1.2372108697891235,10.96399974822998,0.005423155,0,160.1999969482422,-86.9154916,40.3848542,-103.9552221,-9.907741756,-33.55829567,-40.83559517,-35.70732502,-6.498573895,7.082374350538532E-4,0.001074985,6.784206455193677E-4,-0.021539778,0.014386046189561632,6.093646069645014E-4,9.950352779869894,-0.247517756,-0.195378035,-0.995122964,0.013389942,0.008586857,0.097351194,0.019704434,0.02497999,2.946310515542632,Home
90,-133.125,9.948025134893564,-0.247507592,-0.194876998,-6.67E-05,-1.23E-04,-1.68E-04,0,0.2121320366859436,1.2471802234649658,10.96399974822998,0.011868351139128208,0,160.1999969482422,-86.9154916,40.3848544,-103.9285039,-9.916159792,-33.58598938,-40.8089991,-35.71696327,-6.52638989,-6.64E-04,7.310917655241143E-4,3.111094815059773E-4,-0.021599084,0.014231851695159685,4.4330904707855104E-4,9.948025134893564,-0.247507592,-0.194876998,-0.995125075,0.013372277605880811,0.008548914,0.097335394,0.019625038,0.024952542,2.9463436510956402,Home
91,-138.1111111,9.935014141416087,-0.252242419,-0.190894396,-1.50E-04,-4.31E-04,-3.81E-04,0,0.20518285036087036,1.1065411567687988,9.93500042,0.033976909,0,160.1999969482422,-86.9154918,40.3848548,-103.9845018,-9.972645788,-33.56219952,-40.86426521,-35.77369328,-6.502599874,-0.007813204,-4.22E-04,-1.70E-04,-0.021682112,0.013923462814859395,2.2980903028917398E-4,9.935014141416087,-0.252242419,-0.190894396,-0.995149806,0.013533270248727313,0.008307444,0.097080869,0.019169262727921448,0.025324977681185436,2.946857283416304,Home
92,-147.25,9.933550630958335,-0.253000338,-0.190476233,-4.30E-05,2.0905210607169756E-4,-7.26E-05,0,0.2973213791847229,1.1165332794189453,9.93500042,0.022081108763813972,0,160.1999969482422,-86.9154918,40.3848549,-103.9544899,-9.96593586,-33.50888538,-40.83461933,-35.76600723,-6.449041886,4.8219810411768055E-4,-2.29E-04,0.00104058,-0.021575362,0.014563962826234044,5.381979450619626E-4,9.933550630958335,-0.253000338,-0.190476233,-0.995143171,0.013596084430018097,0.008365664,0.097135131,0.019298822212132437,0.025437644,2.946745243,Home
93,-136.1111111,9.933036535688974,-0.253229746,-0.190638851,-4.30E-05,-5.19E-05,-9.64E-05,0,0.2408318966627121,1.126568317,9.93500042,0.010124665684998035,0,160.1999969482422,-86.9154918,40.3848549,-103.893856,-9.980331764,-33.5249894,-40.77361942,-35.78015915,-6.464779911,-0.001172242,5.9278555286740794E-5,4.423706276902875E-4,-0.021575362,0.014303018393230092,5.144757208486711E-4,9.933036535688974,-0.253229746,-0.190638851,-0.995148682,0.013609874957394831,0.008321627,0.097080507,0.019212434,0.025474717587377262,2.946855795036242,Home
94,-138.5,9.938040177798966,-0.250973408,-0.190824702,2.8170140017077183E-5,-1.63E-05,-3.71E-05,0,0.191049725,1.136495829,9.93500042,0.014462588354945183,0,160.1999969482422,-86.9154919,40.3848551,-103.9252103,-9.935801754,-33.52584335,-40.80594917,-35.7362394,-6.46587791,0.002310827,0.001370732,6.0725848651626734E-5,-0.021504195,0.014338601706097426,5.737812799690924E-4,9.938040177798966,-0.250973408,-0.190824702,-0.995148768,0.013573456,0.008331726,0.097083823,0.019225525,0.025400194077237138,2.9468497697589466,Home
95,-143.5555556,9.939120422289209,-0.252056568,-0.190871165,-1.68E-12,1.1747067149441977E-5,-4.70E-05,0,0.16970562934875488,1.1465288400650024,9.93500042,0.027342753,0,160.1999969482422,-86.9154922,40.3848554,-103.918744,-9.904325819,-33.60172729,-40.79960518,-35.70390915,-6.541883888,9.79157594534067E-4,-5.36E-05,6.520839837881235E-4,-0.021532365,0.014366657813437857,5.638590065735535E-4,9.939120422289209,-0.252056568,-0.190871165,-0.995143858,0.013553009771455366,0.008354741,0.097135056,0.019268667020906623,0.025354028177949097,2.946746698,Home
96,-141.625,9.925448667655871,-0.252962587,-0.191196402,-7.41E-06,-4.00E-05,-2.52E-05,0,0.16970562934875488,1.1565024852752686,9.93500042,0.033996698,0,160.1999969482422,-86.9154924,40.3848557,-104.0081696,-9.979477749,-33.49204918,-40.88878704,-35.77893944,-6.432083898,-0.009228919,-5.81E-04,1.9739712904957892E-4,-0.021539778,0.014314879518617126,5.85642389532685E-4,9.925448667655871,-0.252962587,-0.191196402,-0.995143374,0.013574673,0.008350467,0.09713733,0.019264443,0.025397936677903805,2.946741711,Home
97,-140.2222222,9.887146014611698,-0.258314495,-0.190383308,1.230590340446283E-4,-7.56E-05,-9.64E-05,0,0.15556348860263824,1.1665006875991821,9.93500042,0.015438341535627842,0,160.1999969482422,-86.9154924,40.3848557,-103.947292,-9.933361845,-33.53584736,-40.82717709,-35.73318935,-6.476125898,-0.01799289,-0.002730194,4.3244413959169853E-4,-0.021409306,0.014279296160539955,5.14475721978917E-4,9.887146014611698,-0.258314495,-0.190383308,-0.99514599,0.013768890113072488,0.008331628,0.097084755,0.01926346,0.025789219198875057,2.9468431403336015,Home
98,-144.75,9.881616870176446,-0.259275688,-0.189268206,-3.11E-05,-1.47E-04,-2.52E-05,0,0.27586227655410767,1.176487684249878,9.93500042,0.011903133243322372,0,160.1999969482422,-86.9154925,40.3848557,-103.9586379,-9.951295815,-33.53011349,-40.83840118,-35.7518552,-6.470269876,-0.004680717,-5.89E-04,2.2647537074042755E-4,-0.021563501,0.01420813,5.85642389532685E-4,9.881616870176446,-0.259275688,-0.189268206,-0.995152474,0.013943484667869448,0.008266996,0.096998898,0.019166573502340363,0.026150987058588603,2.9470131050035793,Home
99,-141.3333333,9.887331851477763,-0.259586407,-0.191080246,-7.41E-06,9.044098274474873E-5,-1.20E-04,0,0.27586227655410767,1.1864434480667114,9.93500042,0.004169935,0,160.1999969482422,-86.9154925,40.3848556,-103.9431439,-9.973133812,-33.48558334,-40.8235173,-35.77296116,-6.425861883,0.002400685,-1.66E-04,-5.78E-04,-0.021539778,0.014445351689909269,4.907534966353798E-4,9.887331851477763,-0.259586407,-0.191080246,-0.995147872,0.013987108106607372,0.008314793,0.097035706,0.019271218,0.026227820375301306,2.9469368180024973,Home
100,-142.875,9.891928892869215,-0.258833234,-0.192093042,5.189236310012277E-5,-2.42E-04,-9.64E-05,0,0.2475883662700653,1.1964333057403564,9.93500042,0.007167576,0,160.1999969482422,-86.9154925,40.3848555,-103.9097163,-9.985089779,-33.47228535,-40.7903331,-35.78564919,-6.411953907,0.002248884,7.64025646506004E-4,-0.001003464,-0.021480473,0.014113241,5.144757197184253E-4,9.891928892869215,-0.258833234,-0.192093042,-0.99514762,0.014000824516982709,0.008339136,0.097034236,0.01932232,0.026250424,2.9469388133113825,Home
101,-139,9.902943463001437,-0.258514865,-0.191521641,2.8170140017077183E-5,-4.43E-04,2.2239572802576626E-5,0,0.2828427255153656,1.2065057754516602,11.109999656677246,0.013503311201930046,0,160.1999969482422,-86.9154923,40.3848557,-103.92033,-9.943243732,-33.52962555,-40.80033733,-35.74197308,-6.469537897,0.007043663,4.7293565805675916E-4,-0.001438213,-0.021504195,0.013911601743724161,6.330868407848824E-4,9.902943463001437,-0.258514865,-0.191521641,-0.995155829,0.013941903743278054,0.008287395,0.096962933,0.019205939,0.026144569,2.9470848967728105,Home
102,-144.6666667,9.944724971808276,-0.252884181,-0.191777185,6.37534743590841E-5,-1.63E-05,-1.79E-04,0,0.19798989593982697,1.2165658473968506,11.109999656677246,0.010806219652295113,0,160.1999969482422,-86.9154922,40.3848557,-103.93436,-9.951417761,-33.56890976,-40.81387928,-35.75148911,-6.50906589,0.021071832156875758,0.003444497,-6.78E-04,-0.021468612,0.014338601715139393,4.314479380800814E-4,9.944724971808276,-0.252884181,-0.191777185,-0.995149512,0.013785516788947929,0.008330695,0.097046361,0.019263848409201336,0.025823238766887812,2.946919931948764,Home
103,-140.25,9.955356236800407,-0.252953875,-0.191103478,1.3492014586871255E-4,-2.54E-04,-3.71E-05,0,0.20518285036087036,1.2265841960906982,11.109999656677246,0.004882531,0,160.1999969482422,-86.9154922,40.3848556,-103.9232578,-9.934337769,-33.51718143,-40.80363136,-35.73477535,-6.456971927,0.007074662,7.876513652431155E-4,2.095758625604574E-4,-0.021397445,0.014101379532909509,5.737812765783549E-4,9.955356236800407,-0.252953875,-0.191103478,-0.995150671,0.013626717,0.008323474,0.097057569,0.019218809559073263,0.025508324,2.9469014440925374,Home
104,-146.6666667,9.947498191907568,-0.254600392,-0.193403375,1.7050348077584239E-4,-3.13E-04,1.0378455327263155E-5,0,0.15556348860263824,1.2364870309829712,11.109999656677246,0.007500022,0,160.1999969482422,-86.9154922,40.3848555,-103.8826315,-9.990945759,-33.55939331,-40.76227356,-35.79040718,-6.499549913,-0.003890954,-9.30E-04,-0.002526075,-0.021361862,0.014042073951184172,6.212257255700607E-4,9.947498191907568,-0.254600392,-0.193403375,-0.995151778,0.013611154639822187,0.008305653,0.097049926,0.019180096,0.025480958,2.946917621834764,Home
105,-139.25,9.941301206940587,-0.255062116,-0.192357966,1.4096475150346613E-4,-2.47E-04,-1.06E-04,0,0.191049725,1.2466086149215698,11.109999656677246,0.004863991,0,160.1999969482422,-86.9154922,40.3848555,-103.9073978,-9.946293793,-33.53975132,-40.78716133,-35.74648724,-6.479297891,-0.001932364,-4.02E-04,-6.47E-04,-0.0213914,0.014108222470475504,5.051236887363932E-4,9.941301206940587,-0.255062116,-0.192357966,-0.995146182,0.013673620325369904,0.008352036,0.097094541,0.019285773625597358,0.025595421,2.946825263591913,Home
106,-145,9.939628564038323,-0.253273307,-0.190313613,2.6539237649876227E-4,-2.89E-04,-1.08E-04,0,0.2828427255153656,1.1061311960220337,9.93500042,0.00471177,0,160.1999969482422,-86.9154923,40.3848556,-103.8876335,-9.973621759,-33.61282936,-40.76788528,-35.77271706,-6.552375884,-0.002542311,0.001212839,-3.18E-05,-0.021266973,0.014065796192916273,5.026146090245869E-4,9.939628564038323,-0.253273307,-0.190313613,-0.995151862,0.013663102,0.008279561,0.097043963,0.019138117,0.02558955,2.9469290150022043,Home
107,-140.125,9.938188201015436,-0.252277264,-0.190081301,-3.11E-05,1.971909885963841E-4,-7.26E-05,0,0.27586227655410767,1.1162302494049072,9.93500042,0.003881336,0,160.1999969482422,-86.9154923,40.3848556,-103.8904395,-9.972401752,-33.60270325,-40.7702034,-35.7706432,-6.54273787,6.200642261690307E-4,0.001586856,6.546385369254548E-4,-0.021563501,0.014552101664679143,5.381979394107334E-4,9.938188201015436,-0.252277264,-0.190081301,-0.995145473,0.013640863187972781,0.008308252,0.097110112,0.019192606,0.025538426109598677,2.9467958732716086,Home
108,-141.7777778,9.94102828,-0.253395271,-0.190987322,9.93368109615827E-5,1.927430953975152E-5,-1.33E-05,0,0.41725292801856995,1.1263165473937988,9.93500042,0.003799301,0,160.1999969482422,-86.9154923,40.3848555,-103.9571741,-9.977647734,-33.56024746,-40.8376693,-35.77820724,-6.500403895,5.36039037611878E-4,-5.44E-04,-1.73E-04,-0.021433028,0.014374185,5.975034996614005E-4,9.94102828,-0.253395271,-0.190987322,-0.995143578,0.013586697548410846,0.008314387,0.097136657,0.019194935276670363,0.025428905,2.9467436734912464,Home
109,-134.375,9.93709054,-0.253827954,-0.190174226,9.933680983133686E-5,-1.71E-04,3.410068293129211E-5,0,0.21931712329387665,1.1362375020980835,9.93500042,0.002991534,0,160.1999969482422,-86.9154923,40.3848555,-103.9227702,-9.959591789,-33.60197144,-40.80277714,-35.75893112,-6.542005906,-0.002798006,-5.14E-04,5.241926144627691E-4,-0.021433028,0.014184407293073182,6.449479514787209E-4,9.93709054,-0.253827954,-0.190174226,-0.995142751,0.013609426132249601,0.00830679,0.097142616,0.019184396068737345,0.025475511110378702,2.9467313428526944,Home
110,-137.8888889,9.923863695218014,-0.254145373,-0.190252408,7.56145873134142E-5,-1.71E-04,-1.56E-04,0,0.3889729976654053,1.1462846994400024,9.93500042,0.012174787931144238,0,160.1999969482422,-86.9154922,40.3848553,-103.8744582,-9.918233805,-33.49339134,-40.75348915,-35.71842709,-6.433669901,-0.004254971,1.4628281871091972E-4,-1.89E-04,-0.021456751,0.014184407293073182,4.55170161163127E-4,9.923863695218014,-0.254145373,-0.190252408,-0.995145984,0.013665263812301808,0.008276034,0.097104257,0.019133067572290458,0.025593379602848906,2.9468078729018425,Home
111,-147.5,9.926293697171998,-0.253732124,-0.190662083,4.447915803785753E-6,-2.65E-04,-2.52E-05,0,0.41012194752693176,1.156167984008789,9.93500042,0.010152318514883518,0,160.1999969482422,-86.9154921,40.3848553,-103.8926358,-9.950807791,-33.56097935,-40.7717894,-35.74929329,-6.50101388,-0.003102043,1.3989991354710848E-4,-0.001371037,-0.021527917,0.014089518407522475,5.856423929234226E-4,9.926293697171998,-0.253732124,-0.190662083,-0.995149894,0.013648631,0.008242602,0.097069368,0.019062360911404046,0.025567442992503204,2.9468792387582723,Home
112,-138.4444444,9.890537845,-0.258128645,-0.189848989,2.8170138321708416E-5,-1.11E-04,-2.52E-05,0,0.40311288833618164,1.166149377822876,9.93500042,0.005423204,0,160.1999969482422,-86.9154921,40.3848553,-103.9228919,-9.981795797,-33.5148634,-40.80302116,-35.78186729,-6.455141883,-0.016030478,-0.001973681,-3.31E-04,-0.021504195,0.014243712802462786,5.856423912280538E-4,9.890537845,-0.258128645,-0.189848989,-0.995146079,0.013799339089795802,0.008273066,0.097084532,0.019152798120257924,0.025861224503193087,2.9468443301117535,Home
113,-139.125,9.883893540762003,-0.260913494,-0.190336845,-1.93E-05,-1.82E-04,-7.26E-05,0,0.2617250382900238,1.1761153936386108,9.93500042,0.006621004,0,160.1999969482422,-86.9154921,40.3848552,-103.906178,-9.955565767,-33.51998772,-40.78606331,-35.75649143,-6.460265918,-0.005090001,-0.001699226,-5.69E-04,-0.021551639,0.014172546149602214,5.381979450619626E-4,9.883893540762003,-0.260913494,-0.190336845,-0.995146762,0.013950546633777688,0.008269827,0.097056204,0.019175093,0.026163390738148135,2.946897671060655,Home
114,-142,9.887842956098538,-0.259786778,-0.19096409,6.375347492420703E-5,-6.38E-05,-6.08E-05,0,0.2617250382900238,1.1861252784729004,9.953000069,0.024454435,0,160.1999969482422,-86.915492,40.3848549,-103.9525383,-9.941169796,-33.62356541,-40.83327717,-35.74185139,-6.563965874,0.00160083,3.7918247065497836E-4,-5.59E-04,-0.021468612,0.014291157,5.500590585814156E-4,9.887842956098538,-0.259786778,-0.19096409,-0.995141541,0.014034391688273369,0.008297308,0.09709534,0.019247194281914858,0.026324190940816426,2.946816263846981,Home
115,-138,9.893139885467233,-0.260231076,-0.191196403,-8.22E-05,1.05723571323324E-4,-1.64E-04,0,0.26870056986808777,1.196143627166748,9.982000350952148,0.016286304220557213,0,160.1999969482422,-86.915492,40.3848548,-103.8945879,-9.996801805,-33.51522934,-40.77386349,-35.79736115,-6.455019903,0.002349551,5.386302677484659E-4,3.6028457375673147E-4,-0.021614595,0.014460634305858268,4.463883781751904E-4,9.893139885467233,-0.260231076,-0.191196403,-0.995133743,0.014049129488949593,0.008360597,0.097167714,0.019378001,0.026339810126676008,2.946668792229432,Home
116,-140.5,9.899830484853208,-0.259508002,-0.191359023,-7.86E-05,-1.63E-05,-1.32E-04,0,0.2617250382900238,1.206186294555664,11.401000022888184,0.012263927608728409,0,160.1999969482422,-86.915492,40.3848547,-103.8638444,-9.946293764,-33.51693741,-40.74409542,-35.74587723,-6.456605902,0.004725928,0.001229732,2.0288249242652966E-4,-0.021610945,0.014338601760349227,4.7889238594154133E-4,9.899830484853208,-0.259508002,-0.191359023,-0.995135907,0.01404545,0.008351414,0.097146817,0.019358446,0.026334679,2.9467111050503925,Home
117,-134.2222222,9.940444538894209,-0.257211011,-0.189361131,-1.02E-04,-2.06E-04,-5.71E-04,0,0.25495097041130066,1.2161816358566284,11.447999954223633,0.011494092643260956,0,160.1999969482422,-86.915492,40.3848546,-103.9394836,-10.02095777,-33.5543914,-40.8183934,-35.82066322,-6.494669938,0.02096416,0.003099413,6.147452349801665E-4,-0.021634667,0.014148823916912079,4.0031242234071774E-5,9.940444538894209,-0.257211011,-0.189361131,-0.995146526,0.013983337760188626,0.008254617,0.097055182,0.019151179716714376,0.026231636754372744,2.946899319158017,Home
118,-149,9.949847489884757,-0.254707836,-0.188873274,-9.04E-05,-8.75E-05,-1.68E-04,0,0.24839484691619873,1.2262251377105713,11.494000434875488,0.006290383,0,160.1999969482422,-86.915492,40.3848546,-103.9120336,-10.01168579,-33.52730728,-40.79216343,-35.8124892,-6.466731896,0.005338798,0.002615662,2.001717831324605E-5,-0.021622806,0.014267435062278821,4.4330905103441147E-4,9.949847489884757,-0.254707836,-0.188873274,-0.995155242,0.013793936975806663,0.008195059,0.096997975,0.018994177,0.025867292494739142,2.947020424222483,Home
119,-137.3333333,9.949478723470447,-0.255744533,-0.190104532,-7.41E-06,-2.82E-05,1.7939931464390558E-4,0,0.25495097041130066,1.2362066507339478,11.520000457763672,0.002594375,0,160.1999969482422,-86.915492,40.3848546,-103.9550997,-9.991189766,-33.5720813,-40.83522938,-35.79065121,-6.512237883,0.001685504,5.5202870693021606E-5,-7.58E-05,-0.021539778,0.014326740580710392,6.44947950913598E-4,9.949478723470447,-0.255744533,-0.190104532,-0.995148261,0.013718690207788667,0.008255615,0.097075071,0.019102076,0.025704260861266006,2.9468657391742594,Home
120,-129.375,9.95021953,-0.255554606,-0.18924006,4.0031251276038514E-5,1.92743089746286E-5,4.447916934031595E-5,0,0.17691805958747864,1.2462764978408813,11.538000106811523,0.006916965,0,160.1999969482422,-86.9154919,40.3848545,-103.9043481,-10.02693574,-33.59757954,-40.78484344,-35.82664127,-6.537247896,9.95154519682949E-5,-7.86E-04,7.90542045843254E-4,-0.021492334,0.014374185018964763,5.026146107199557E-4,9.95021953,-0.255554606,-0.18924006,-0.995145055,0.013661470978511768,0.00826344,0.097115381,0.019107538537637702,0.025588066,2.9467859129303866,Home
121,-137.5555556,9.946417965935272,-0.254855938,-0.188362185,-1.73E-04,3.113542644994207E-5,9.192361437616128E-5,0,0.18384777009487152,1.105608344078064,10.178000450134277,0.023162273690104485,0,160.1999969482422,-86.9154921,40.3848549,-103.8956858,-9.995825758,-33.55012127,-40.77618122,-35.79577518,-6.49039989,-0.001934339,-5.68E-04,9.771443686438996E-4,-0.021705834,0.014386046180519665,5.500590529301864E-4,9.946417965935272,-0.254855938,-0.188362185,-0.995149138,0.013648066063890758,0.008221245,0.097079,0.019019975,0.025570287812248016,2.946860419893728,Home
122,-139.375,9.943978652213383,-0.254591682,-0.188501573,1.2305903517487412E-4,-7.56E-05,1.2750695210890574E-4,0,0.18384777009487152,1.1155853271484375,10.164999961853027,0.017533612,0,160.1999969482422,-86.9154922,40.384855,-103.86055,-9.988261738,-33.64747738,-40.74006943,-35.78735741,-6.587755885,-0.001226999,-3.85E-04,1.127763280590761E-4,-0.021409306,0.014279296142456023,5.856423917931767E-4,9.943978652213383,-0.254591682,-0.188501573,-0.995150221,0.013635517993164294,0.008199425,0.097071499,0.018973891,0.025549696,2.9468763453289144,Home
123,-141.3333333,9.940729243084064,-0.254066074,-0.188850043,1.8236459429529542E-4,-1.23E-04,8.006250481256872E-5,0,0.18384777009487152,1.1255890130996704,10.17199993133545,0.003044473,0,160.1999969482422,-86.9154921,40.3848549,-103.9502197,-9.977037764,-33.60416744,-40.83010529,-35.77820732,-6.544201894,-0.001747122,-2.59E-04,-1.87E-04,-0.021350001,0.014231851731327553,5.381979461922084E-4,9.940729243084064,-0.254066074,-0.188850043,-0.995146959,0.013616970378580024,0.00819405,0.097108012,0.018960507,0.025513125041011466,2.946803546646266,Home
124,-143.75,9.939245242516972,-0.254771723,-0.188710655,1.5271181473508477E-4,-1.29E-04,1.2921768939122558E-4,0,0.18384777009487152,1.1355544328689575,10.184000015258789,0.00470891,0,160.1999969482422,-86.9154921,40.384855,-103.954734,-9.954345732,-33.56866528,-40.83449722,-35.75392929,-6.508577895,-9.00E-04,-0.001420728,-3.66E-04,-0.021379653,0.014225693052419676,5.873531307980346E-4,9.939245242516972,-0.254771723,-0.188710655,-0.995145704,0.013600378682335408,0.00819228,0.097123307,0.018954139220743224,0.025480150836161695,2.946773249369401,Home
125,-138.4444444,9.937717771067202,-0.254914016,-0.189035893,2.772534883228465E-4,-2.42E-04,1.7495139940524275E-4,0,0.2828427255153656,1.145594596862793,10.21399974822998,0.002407819,0,160.1999969482422,-86.9154921,40.3848549,-103.905202,-10.00887974,-33.54816944,-40.78545326,-35.80785324,-6.488325906,-0.001080976,-0.001132289,-9.43E-04,-0.021255112,0.014113240613086709,6.330868396546367E-4,9.937717771067202,-0.254914016,-0.189035893,-0.995147818,0.013621589331661613,0.008175549,0.097100113,0.018924368690084487,0.025526067802628265,2.946819782,Home
126,-138.125,9.927341933389313,-0.256090099,-0.189268205,2.891145990166849E-4,-3.13E-04,2.105347348774955E-4,0,0.27586227655410767,1.1555531024932861,10.262999534606934,0.004822724,0,160.1999969482422,-86.915492,40.3848549,-103.9692518,-9.988017769,-33.48814556,-40.84864944,-35.78723522,-6.427813892,-0.007195732,-0.002432501,-0.001279064,-0.021243251,0.014042073933100238,6.686701728663977E-4,9.927341933389313,-0.256090099,-0.189268205,-0.9951491,0.013619906920035488,0.008174695,0.097087269,0.018922010870668495,0.025523129091100785,2.946845644886054,Home
127,-147.5555556,9.888563119092034,-0.259696755,-0.187618784,1.8236459316504957E-4,-3.72E-04,8.89583386806319E-6,0,0.20518285036087036,1.1655522584915161,10.31000042,0.006349449,0,160.1999969482422,-86.9154921,40.3848548,-103.9671781,-10.04157578,-33.57061745,-40.84706333,-35.84189121,-6.510163894,-0.018346074,-0.002359569,-7.50E-04,-0.021350001,0.013982768,4.6703127468258E-4,9.888563119092034,-0.259696755,-0.187618784,-0.99515509,0.013833874664766696,0.00812454,0.096999756,0.018861589953303337,0.025960459473352987,2.947017681251452,Home
128,-141.8888889,9.881431014792433,-0.262188313,-0.188826811,8.747569800725261E-5,-2.54E-04,1.5122917575707424E-4,0,0.16970562934875488,1.1755403280258179,10.343000411987305,0.004337582,0,160.1999969482422,-86.9154921,40.3848548,-103.9431441,-9.991799755,-33.55170746,-40.82278542,-35.79113949,-6.491619906,-0.00556131,-0.002456162,-0.00131756,-0.021444889,0.014101379532909509,6.093646160064681E-4,9.881431014792433,-0.262188313,-0.188826811,-0.995149645,0.013984105522626812,0.008161092,0.097031066,0.018964470481698952,0.026251811,2.946950204164079,Home
129,-137.5,9.886107683181763,-0.26280785,-0.189746235,2.8170140017077183E-5,-2.42E-04,4.447916821007011E-5,0,0.16970562934875488,1.1855531930923462,10.369000434875488,0.003538507,0,160.1999969482422,-86.915492,40.3848548,-103.95022,-10.02071375,-33.51291122,-40.83034935,-35.82054111,-6.452213902,0.001478334,-8.18E-04,-0.00138641,-0.021504195,0.014113240658296543,5.026146090245869E-4,9.886107683181763,-0.26280785,-0.189746235,-0.995147488,0.014103141,0.008193121,0.097033268,0.019051507,0.026482496,2.946942047008033,Home
130,-134.6666667,9.892791294357151,-0.26246999,-0.189500518,-1.93E-05,-7.56E-05,1.3936806280274414E-4,0,0.17691805958747864,1.1955785751342773,10.380000114440918,0.006126257,0,160.1999969482422,-86.915492,40.3848547,-103.9354578,-10.05316575,-33.57464367,-40.81534359,-35.85348125,-6.515043879,0.003366767,-0.001187287,-9.11E-04,-0.021551639,0.014279296160539955,5.975035019218922E-4,9.892791294357151,-0.26246999,-0.189500518,-0.995144793,0.014064927,0.008214701,0.09706463,0.019087857919410596,0.026401630195888502,2.9468793915313425,Home
131,-137.875,9.897879072763388,-0.261070304,-0.188431879,1.1119792278566696E-4,-1.11E-04,1.1564584028482148E-4,0,0.14212670922279358,1.2056739330291748,11.88599967956543,0.00464082,0,160.1999969482422,-86.9154921,40.3848547,-103.863478,-10.0148578,-33.5273074,-40.74348537,-35.81517296,-6.467341938,0.003302722,-1.22E-04,6.867299959497545E-4,-0.021421167,0.014243712802462786,5.737812788388465E-4,9.897879072763388,-0.261070304,-0.188431879,-0.995145113,0.014045363599524914,0.008217386,0.097063901,0.019089371490391714,0.026362177997248843,2.946881250270362,Home
132,-143.6666667,9.938530857123217,-0.256383393,-0.189384363,6.375347548932994E-5,4.299653488328879E-5,2.0756945692147444E-5,0,0.14212670922279358,1.2155696153640747,11.87399959564209,0.007017639,0,160.1999969482422,-86.9154921,40.3848546,-103.919598,-9.998021755,-33.56476162,-40.79984932,-35.79723923,-6.505039883,0.021486560117851182,0.002361992,2.874969278724448E-5,-0.021468612,0.014397907269738832,4.788923865066642E-4,9.938530857123217,-0.256383393,-0.189384363,-0.995143851,0.013902957261838381,0.008240853,0.097095302,0.019109144,0.026073543,2.9468209928679236,Home
133,-139.125,9.955452076439718,-0.256665071,-0.189244974,2.8170138321708416E-5,-5.19E-05,-2.97E-06,0,0.16278821229934692,1.225603461265564,11.847999572753906,0.004730887,0,160.1999969482422,-86.915492,40.3848546,-103.946926,-10.00131577,-33.52181725,-40.82705536,-35.80065552,-6.462217903,0.009367943,-4.32E-04,-2.89E-04,-0.021504195,0.014303018366104191,4.551701634236186E-4,9.955452076439718,-0.256665071,-0.189244974,-0.995148347,0.013738356,0.008204743,0.097075736,0.019004641136932142,0.025753287996337252,2.946865218356975,Home
134,-138.5555556,9.95332641,-0.254562643,-0.189570212,-1.17E-04,-1.29E-04,7.048237603157759E-5,0,0.2545584440231323,1.2355948686599731,11.819000244140625,0.006186666,0,160.1999969482422,-86.9154919,40.3848546,-103.9267965,-9.951783791,-33.5719595,-40.80668125,-35.75112343,-6.511871896,1.821151146521935E-5,7.60430613389382E-4,-1.59E-04,-0.021649836,0.014225693061374702,5.286178191174538E-4,9.95332641,-0.254562643,-0.189570212,-0.995146977,0.013689007923508493,0.008218008,0.097095646,0.019021941635471124,0.025652096,2.946826079717049,Home
135,-136.5,9.948084812719845,-0.255099863,-0.189059123,-7.41E-06,-4.45E-06,3.26180575162317E-5,0,0.25495097041130066,1.2456141710281372,11.791999816894531,0.006837459,0,160.1999969482422,-86.9154919,40.3848545,-103.9280162,-9.990579777,-33.69273933,-40.80777912,-35.79004139,-6.632529855,-0.002266273,-6.11E-04,9.546961309840378E-4,-0.021539778,0.014350462840526428,4.907534988958714E-4,9.948084812719845,-0.255099863,-0.189059123,-0.995142531,0.013650974276864413,0.008258098,0.09714321,0.019095569125656943,0.025567678517652948,2.946730375289917,Home
136,-143.4444444,9.935017067251854,-0.256577956,-0.187944022,4.0031251276038514E-5,-2.82E-05,4.447916934031595E-5,0,0.16970562934875488,1.1052204370498657,10.185999870300293,0.016574854031205177,0,160.1999969482422,-86.915492,40.3848548,-103.8930022,-10.02425172,-33.53011326,-40.77361927,-35.82383514,-6.469781885,-0.008242302,-0.001604558,7.07378954563326E-4,-0.021492334,0.014326740589752359,5.026146124153245E-4,9.935017067251854,-0.256577956,-0.187944022,-0.995149677,0.013675740115272188,0.008194516,0.09707181,0.018971964897750652,0.025630709651893784,2.9468748870405177,Home
137,-135.625,9.926598511853264,-0.25623239,-0.187967254,1.1119792222054404E-4,-8.75E-05,9.192361663665297E-5,0,0.17691805958747864,1.1151922941207886,10.11400032043457,0.007699572,0,160.1999969482422,-86.915492,40.3848548,-103.9032502,-9.991311827,-33.56073528,-40.78350121,-35.79101704,-6.500647864,-0.001760436,-3.22E-04,-7.05E-05,-0.021421167,0.014267435017068989,5.500590591465386E-4,9.926598511853264,-0.25623239,-0.187967254,-0.995152873,0.013740147120382601,0.008164832,0.097032483,0.018924404062258388,0.025765435969077266,2.9469531415735633,Home
138,-139.7777778,9.939611157167304,-0.255146328,-0.188919737,-6.67E-05,-1.63E-05,1.1564584028482148E-4,0,0.16970562934875488,1.1251925230026245,10.062000274658203,0.002837919,0,160.1999969482422,-86.915492,40.3848548,-103.9191102,-10.02242182,-33.50571331,-40.79899529,-35.82115128,-6.445625906,0.004608691,-2.42E-04,-1.72E-04,-0.021599084,0.014338602,5.737812810993382E-4,9.939611157167304,-0.255146328,-0.188919737,-0.995148332,0.013686014113278643,0.008206143,0.097083186,0.018997413404647587,0.025648682550029847,2.9468514826691266,Home
139,-138.875,9.941562772,-0.254778088,-0.188388767,-2.09E-04,-4.00E-05,1.9867362305341126E-4,0,0.1345362365245819,1.1352983713150024,9.984000205993652,7.948934216983616E-4,0,160.1999969482422,-86.915492,40.3848548,-103.9054465,-9.943609772,-33.5041272,-40.78569721,-35.74392525,-6.444283915,0.001155825,-7.39E-04,3.988062872470004E-4,-0.021741417,0.014314879491491225,6.568090616074363E-4,9.941562772,-0.254778088,-0.188388767,-0.995147907,0.013635687,0.008211076,0.097094219,0.018997703,0.025547334,2.9468303930412216,Home
140,-138.5555556,9.939396302676895,-0.254481332,-0.18789756,-1.93E-05,-1.82E-04,1.5122917575707424E-4,0,0.16278821229934692,1.1452640295028687,9.93500042,1.531934249214828E-4,0,160.1999969482422,-86.915492,40.3848548,-103.9103258,-10.00912374,-33.59367554,-40.79033344,-35.80895119,-6.53395391,-8.84E-04,-9.74E-04,3.640194541042291E-5,-0.021551639,0.014172546194812048,6.093646143110993E-4,9.939396302676895,-0.254481332,-0.18789756,-0.995153403,0.013610818730757653,0.008163215,0.097045406,0.018896306096350107,0.025508064776659012,2.9469303112585568,Home
141,-141.75,9.931581737925706,-0.255094059,-0.189105586,8.747569913749845E-5,-3.01E-04,1.630902875811585E-4,0,0.16970562934875488,1.1551674604415894,9.93500042,7.803982589393854E-5,0,160.1999969482422,-86.915492,40.3848548,-103.9871863,-10.04023376,-33.55963757,-40.86792522,-35.84054928,-6.499671893,-0.005570764,-0.001961534,-0.00100047,-0.021444889,0.014053935058487272,6.212257283956753E-4,9.931581737925706,-0.255094059,-0.189105586,-0.995151515,0.013581498,0.008180517,0.097067399,0.018925603008964686,0.025445918579703394,2.946886370482954,Home
142,-148.3333333,9.892280189736375,-0.260559218,-0.188942967,-7.41E-06,-1.94E-04,1.0378472846073723E-4,0,0.1345362365245819,1.165195345878601,9.93500042,0.005102833,0,160.1999969482422,-86.915492,40.3848547,-104.0070715,-10.02156778,-33.54402138,-40.88671322,-35.82224911,-6.484177899,-0.019017682,-0.003395414,-0.001186078,-0.021539778,0.014160685,5.619201670147623E-4,9.892280189736375,-0.260559218,-0.188942967,-0.995151968,0.013820099888496029,0.008170809,0.097029865,0.018951819,0.025923478,2.9469563150868834,Home
143,-139,9.881825928549164,-0.262815556,-0.188942968,6.375347548932994E-5,-2.18E-04,4.4479167079824265E-5,0,0.16278821229934692,1.175181269645691,9.93500042,0.003586014,0,160.1999969482422,-86.915492,40.3848547,-103.9541236,-10.02010379,-33.61612362,-40.83364326,-35.82054111,-6.556279898,-0.006965943,-0.002084715,-9.31E-04,-0.021468612,0.014136962836734879,5.02614608459464E-4,9.881825928549164,-0.262815556,-0.188942968,-0.995150387,0.014033002335831378,0.008179249,0.097014836,0.019009726899630815,0.026345925785384132,2.9469811846909013,Home
144,-140.1111111,9.886774313102649,-0.263300509,-0.189221742,-2.35E-05,-1.17E-04,1.1747062671929598E-4,0,0.16970562934875488,1.1851882934570312,9.949000358581543,0.00171826,0,160.1999969482422,-86.915492,40.3848547,-103.9392398,-10.00997783,-33.55622124,-40.81961327,-35.80943901,-6.496255898,0.001610563,-0.001094691,-8.04E-04,-0.021555859,0.014237440119569119,5.75606067006727E-4,9.886774313102649,-0.263300509,-0.189221742,-0.995148373,0.014116278383880854,0.008194745,0.097022103,0.019057004443871286,0.026508543,2.946964128659322,Home
145,-150.5,9.892651983835165,-0.262986887,-0.189756063,4.4479163689086735E-6,-1.59E-04,4.447916934031595E-5,0,0.16970562934875488,1.195203423500061,9.979999542236328,0.006826755,0,160.1999969482422,-86.9154919,40.3848546,-103.9630301,-10.00521977,-33.54023952,-40.84267136,-35.80590126,-6.479541888,0.002907522,-7.14E-04,-8.78E-04,-0.021527917,0.014196268418460216,5.026146112850786E-4,9.892651983835165,-0.262986887,-0.189756063,-0.99514608,0.014114303975501686,0.008215019,0.097044179,0.019097576424190143,0.026500249,2.9469192838205873,Home
146,-139.1111111,9.896043805242742,-0.261430389,-0.190220689,-1.26E-04,-2.18E-04,-2.97E-06,0,0.18439088761806488,1.2052228450775146,11.725000381469727,0.009129834,0,160.1999969482422,-86.915492,40.3848545,-103.9873075,-10.00680574,-33.56805534,-40.86804733,-35.80602333,-6.508211884,0.002313966,5.274319533005501E-4,-5.68E-04,-0.021658389,0.014136962800567011,4.551701634236186E-4,9.896043805242742,-0.261430389,-0.190220689,-0.995141991,0.014098041,0.008251523,0.097085367,0.019168184,0.026459987103505042,2.946835925278154,Home
147,-144.375,9.934999706675706,-0.258157682,-0.189059125,-3.11E-05,1.9274310104874443E-5,-1.48E-05,0,0.18439088761806488,1.2152035236358643,11.725000381469727,0.010770161636173725,0,160.1999969482422,-86.915492,40.3848544,-103.9009319,-9.997533751,-33.56195545,-40.78154934,-35.79638519,-6.501867895,0.021222439,0.001462051,3.909773907615143E-4,-0.021563501,0.014374185037048697,4.4330905386002605E-4,9.934999706675706,-0.258157682,-0.189059125,-0.995144186,0.013952376438503705,0.008236085,0.097085253,0.019109029268610824,0.026173035749821986,2.9468401172786085,Home
148,-139.6666667,9.956331993769673,-0.255268292,-0.190220688,-6.67E-05,3.1135421928958696E-5,4.447916934031595E-5,0,0.22627416253089905,1.2252230644226074,11.744000434875488,0.006266773,0,160.1999969482422,-86.915492,40.3848544,-103.9709599,-9.993019791,-33.57415531,-40.8504792,-35.79333519,-6.514067898,0.010826934888524917,8.669073141894295E-4,3.0440178889672732E-5,-0.021599084,0.014386046126267864,5.026146124153245E-4,9.956331993769673,-0.255268292,-0.190220688,-0.995141376,0.013740959342171266,0.00826609,0.09714161,0.019128998705339663,0.025745275131996394,2.9467311947091113,Home
149,-141,9.953725383831905,-0.255692653,-0.189769242,-7.86E-05,-4.45E-06,4.447916934031595E-5,0,0.12806248664855957,1.2352471351623535,11.729999542236328,0.007660894,0,160.1999969482422,-86.915492,40.3848543,-103.895686,-9.983381758,-33.61770958,-40.77544937,-35.78308731,-6.55798789,2.566865346964123E-4,2.0495491120421771E-4,8.006531347348852E-4,-0.021610945,0.014350462813400527,5.026146118502015E-4,9.953725383831905,-0.255692653,-0.189769242,-0.995140263,0.013725125,0.008276252,0.097154368,0.019146473698535012,0.025711531994990933,2.9467056931801214,Home
150,-151,9.948793383,-0.256168504,-0.189639907,1.6309027062747086E-5,9.04409821796258E-5,8.89583386806319E-6,0,0.22627416253089905,1.2452783584594727,11.71399974822998,0.009441062,0,160.1999969482422,-86.915492,40.3848542,-103.9153281,-9.970693789,-33.60172752,-40.7954575,-35.77100922,-6.541639895,-0.002332419,-7.02E-04,9.256449428576868E-4,-0.021516056,0.014445351680867302,4.670312769430717E-4,9.948793383,-0.256168504,-0.189639907,-0.995140124,0.013698018372999233,0.008278139,0.097159485,0.019145069535351493,0.02565711,2.9466960175523482,Home
151,-136.8888889,9.946264100306243,-0.255262484,-0.189454056,8.747569857237554E-5,7.857986979041864E-5,6.820139298848447E-5,0,0.23345234990119934,1.1044793128967285,9.975999832,0.0124029,0,160.1999969482422,-86.9154922,40.3848544,-103.8744579,-10.02437375,-33.5530497,-40.75507553,-35.82493317,-6.493327913,-0.001422475,-4.95E-05,8.955324448428108E-4,-0.021444889,0.014433490564522235,5.2633683549837E-4,9.946264100306243,-0.255262484,-0.189454056,-0.995140388,0.013688088,0.008276085,0.097158397,0.019139016,0.025637764971956467,2.9466984896983917,Home
152,-136.75,9.943496620770796,-0.254481333,-0.187851097,4.0031251841161433E-5,-4.45E-06,1.7495139940524275E-4,0,0.16278821229934692,1.1144375801086426,9.975999832,0.0099501,0,160.1999969482422,-86.9154922,40.3848545,-103.9422895,-10.02913179,-33.6001413,-40.8225415,-35.82871532,-6.540053873,-0.001663273,-3.43E-04,0.001353107,-0.021492334,0.014350462786274628,6.330868413500053E-4,9.943496620770796,-0.254481333,-0.187851097,-0.995145922,0.013637417683251274,0.008228536,0.097112858,0.019033286340751694,0.025547025,2.946792428933301,Home
153,-136.3333333,9.939968368,-0.255009843,-0.188780348,-1.93E-05,-2.82E-05,6.820139298848447E-5,0,0.12041594833135605,1.1245157718658447,9.953000069,0.006459259,0,160.1999969482422,-86.9154923,40.3848544,-103.9908459,-10.00192579,-33.53792137,-40.87109718,-35.8016312,-6.477711878,-0.001858026,-0.00142178,8.815570363720644E-5,-0.021551639,0.014326740607836293,5.263368338030012E-4,9.939968368,-0.255009843,-0.188780348,-0.995148117,0.013620345157037661,0.0082096,0.097094366,0.018991778541392494,0.025517077447430602,2.946830508778396,Home
154,-140.375,9.940264581476601,-0.255944904,-0.189616675,5.873531279995894E-5,1.1747064910685787E-5,1.9970006542280316E-4,0,0.2121320366859436,1.1343929767608643,9.953000069,0.004119577,0,160.1999969482422,-86.9154923,40.3848544,-103.9083739,-9.992043781,-33.64003521,-40.78899132,-35.79138321,-6.58006989,-1.29E-04,-0.001423922,-2.03E-04,-0.02147363,0.014366657759707708,6.57835504590856E-4,9.940264581476601,-0.255944904,-0.189616675,-0.995145212,0.013656185,0.008234349,0.097116998,0.019048626015249353,0.025583171,2.946783524293166,Home
155,-137.5555556,9.938153415050321,-0.255198598,-0.189268206,1.6309026497624162E-5,7.41319941103603E-6,2.4611807034974825E-4,0,0.15556348860263824,1.1444910764694214,9.947999954223633,0.001957017,0,160.1999969482422,-86.9154923,40.3848544,-103.8664059,-9.97105978,-33.59306549,-40.7460474,-35.7694231,-6.532977877,-0.001120799,-0.00113402,4.3780667689240097E-4,-0.021516056,0.014362323929745596,7.042535094688963E-4,9.938153415050321,-0.255198598,-0.189268206,-0.995143019,0.013642968076453047,0.008253956,0.097139651,0.019085667936981302,0.025552616029688457,2.946737831078687,Home
156,-145.375,9.932940825675297,-0.256331123,-0.188176335,-4.30E-05,-9.93E-05,5.6340281164400206E-5,0,0.23345234990119934,1.1543606519699097,9.963999748,7.552598835900426E-4,0,160.1999969482422,-86.9154923,40.3848544,-103.9271623,-9.980087776,-33.55463531,-40.8072913,-35.78052528,-6.494913893,-0.004176094,-0.001727299,9.808871641899775E-4,-0.021575362,0.014255573909765886,5.144757248045316E-4,9.932940825675297,-0.256331123,-0.188176335,-0.99514611,0.013669115102406844,0.008226136,0.097106672,0.01903453,0.025610707,2.946804183200725,Home
157,-141.1111111,9.893023639049344,-0.260445965,-0.188292491,7.561458787853712E-5,-1.23E-04,8.006250481256872E-5,0,0.16278821229934692,1.1644099950790405,9.986000061035156,0.010956177487969398,0,160.1999969482422,-86.9154924,40.3848542,-103.9486342,-9.963251772,-33.57988945,-40.82839718,-35.76356747,-6.520045881,-0.019467058,-0.002845961,-5.30E-04,-0.021456751,0.014231851722285586,5.381979467573313E-4,9.893023639049344,-0.260445965,-0.188292491,-0.995152749,0.013843526855762144,0.008163333,0.097019145,0.018941221559799992,0.025971767320794967,2.946977481101323,Home
158,-119.625,9.881942128672183,-0.262005365,-0.188896505,-3.11E-05,-7.56E-05,1.0378472846073723E-4,0,0.24041630327701569,1.1743762493133545,10.015999794006348,0.007679264,0,160.1999969482422,-86.9154924,40.3848542,-104.0150022,-10.0102218,-33.63503338,-40.89464317,-35.8101712,-6.574945879,-0.007072828,-0.001685418,-2.04E-04,-0.021563501,0.014279296178623889,5.619201675798852E-4,9.881942128672183,-0.262005365,-0.188896505,-0.995146307,0.014016632406601628,0.008215695,0.097055981,0.01908019,0.026305468,2.9468979071644905,Home
159,-120,9.886450061431297,-0.262479991,-0.188595839,2.817013945195426E-5,-1.47E-04,1.868125010571144E-4,0,0.23345234990119934,1.1843632459640503,10.055000305175781,0.003691387,0,160.1999969482422,-86.9154924,40.3848542,-103.9438757,-10.03388979,-33.49583138,-40.82327354,-35.83322922,-6.435987911,0.001156974,-0.001016053,-4.80E-05,-0.021504195,0.014208129494116433,6.449479424367542E-4,9.886450061431297,-0.262479991,-0.188595839,-0.995150607,0.014081916581947827,0.008211033,0.097002775,0.019082231,0.026437344047629718,2.9470033830809363,Home
160,-120.875,9.891255100953925,-0.259211805,-0.190940859,-3.11E-05,4.462743335114159E-4,1.7495138810278432E-4,0,0.12041594833135605,1.194474697113037,10.076000213623047,0.001358306,0,160.1999969482422,-86.9154924,40.3848542,-103.9258201,-9.97959981,-33.57964523,-40.80582733,-35.77918312,-6.519679885,0.002798821,9.656536926343603E-4,9.988860308545308E-4,-0.021563501,0.014801185071757697,6.330868260916865E-4,9.891255100953925,-0.259211805,-0.190940859,-0.995129751,0.014039440234236925,0.008375872,0.097208394,0.019407589,0.026316727412123125,2.9465868588790154,Home
161,-123.3333333,9.896049481,-0.260457583,-0.194448783,-7.41E-06,-2.82E-05,-7.41E-05,0,0.12041594833135605,1.2043628692626953,11.970999717712402,2.846066781785339E-4,0,160.1999969482422,-86.9154924,40.3848542,-103.9055679,-9.987285719,-33.50083359,-40.78520943,-35.78686913,-6.44086792,0.002452841,-0.001593098,-0.001598616,-0.021539778,0.014326740571668425,3.840034704393192E-4,9.896049481,-0.260457583,-0.194448783,-0.995125367,0.013944668,0.008416035,0.097263584,0.019470508,0.0261192,2.946477225683268,Home
162,-117.2222222,9.931535276394445,-0.254928537,-0.193635687,2.8170137756585496E-5,-9.93E-05,6.82013862070094E-5,0,0.14866068959236145,1.2144081592559814,11.694999694824219,0.006019077,0,160.1999969482422,-86.9154923,40.3848543,-103.8606721,-9.960567722,-33.56988537,-40.74165539,-35.7594194,-6.509797883,0.019325127,0.001591686,1.6546075783886957E-4,-0.021504195,0.014255574000185555,5.263368225005428E-4,9.931535276394445,-0.254928537,-0.193635687,-0.995119101,0.013844380272751294,0.008469384,0.097337397,0.019559056579487994,0.025907734625981848,2.9463299709616355,Home
163,-133.875,9.954162718,-0.252126262,-0.193473069,-1.93E-05,-2.06E-04,-1.48E-05,0,0.1414213627576828,1.2244666814804077,11.939000129699707,0.006576523,0,160.1999969482422,-86.9154922,40.3848542,-103.8861701,-10.01693174,-33.41750736,-40.76593327,-35.8165152,-6.357297935,0.011363946118401093,0.00100146,-2.54E-04,-0.021551639,0.014148824,4.4330904820879684E-4,9.954162718,-0.252126262,-0.193473069,-0.995128339,0.013595420189057161,0.008424016,0.097282008,0.019418634,0.0254221,2.946448559899932,Home
164,-137.5555556,9.933814882074746,-0.25525087,-0.194007389,8.22294342259948E-5,-2.94E-04,-1.64E-04,0,0.12041594833135605,1.234365463256836,11.899999618530273,0.004384131,0,160.1999969482422,-86.9154922,40.3848542,-103.9492442,-9.98643178,-33.51339935,-40.83010509,-35.78625919,-6.453555884,-0.00932887,-0.00136872,-0.001171815,-0.021450136,0.014061234219787786,2.936765612013495E-4,9.933814882074746,-0.25525087,-0.194007389,-0.99513214,0.013653043,0.008413929,0.097235827,0.019408611562819436,0.025539667,2.9465402295956244,Home
165,-139.25,9.940772704707767,-0.25540768,-0.192102423,-5.49E-05,-5.19E-05,8.006250368232287E-5,0,0.14866068959236145,1.2444438934326172,11.623000144958496,0.002062616,0,160.1999969482422,-86.9154922,40.3848542,-103.9686422,-9.992775774,-33.5377993,-40.84950321,-35.79370132,-6.478199902,0.004914849,6.880800700882106E-4,6.839488316508173E-4,-0.021587223,0.014303018411314025,5.381979467573313E-4,9.940772704707767,-0.25540768,-0.192102423,-0.995133848,0.013764945419450987,0.008400249,0.097203821,0.019402409,0.025765702978355214,2.946602175536665,Home
166,-140.5555556,9.944513043153632,-0.254185133,-0.191405484,1.630902819299293E-5,-1.63E-05,8.895832737817347E-6,0,0.12727922201156616,1.1039526462554932,9.963000297546387,0.01521564,0,160.1999969482422,-86.9154924,40.384854,-103.9104475,-9.995459757,-33.55573357,-40.79021156,-35.79431137,-6.495523906,-1.15E-04,5.936706529080289E-4,0.001241653,-0.021516056,0.014338601706097426,4.670312724220883E-4,9.944513043153632,-0.254185133,-0.191405484,-0.995135816,0.013686961069413759,0.008392406,0.097195365,0.019371351209080335,0.025612163077135687,2.946621276799915,Home
167,-137.875,9.926688490562068,-0.257687248,-0.192032729,-7.41E-06,9.04409844401175E-5,8.006250481256872E-5,0,0.17691805958747864,1.1139975786209106,9.942999839782715,0.010799292474985123,0,160.1999969482422,-86.9154925,40.384854,-103.9220383,-9.952149792,-33.5531712,-40.80155708,-35.75185535,-6.492961888,-0.005834681,-0.002149021,1.2652648305429994E-4,-0.021539778,0.014445351717035168,5.381979439317168E-4,9.926688490562068,-0.257687248,-0.192032729,-0.995136398,0.013735924657542729,0.008374864,0.097184028,0.019345692,0.025713262121075567,2.9466433108431622,Home
168,-125.4444444,9.936621748484098,-0.255563235,-0.189723226,-1.93E-05,-3.13E-04,-6.23E-05,0,0.20518285036087036,1.123966932296753,9.942000389099121,0.003449573,0,160.1999969482422,-86.9154924,40.384854,-103.9475356,-9.990579786,-33.49363514,-40.82668934,-35.79028526,-6.433913913,0.001974134,8.612813301456785E-5,4.4572642705972913E-4,-0.021551639,0.014042073951184172,3.9586459639147646E-4,9.936621748484098,-0.255563235,-0.189723226,-0.995149099,0.013730387049681932,0.008271261,0.097063538,0.019135210988591018,0.025724722832007316,2.9468882384809474,Home
169,-120.625,9.940871488700793,-0.256368872,-0.188919736,6.375347605445287E-5,3.113542531969622E-5,1.3936806393299E-4,0,0.2126029133796692,1.1339943408966064,9.939000129699707,0.001776704,0,160.1999969482422,-86.9154924,40.384854,-103.8920261,-9.98374774,-33.51608341,-40.7721553,-35.7840633,-6.455995932,0.003105432,-6.80E-04,5.094929806237082E-4,-0.021468612,0.014386046144351797,5.975035053126297E-4,9.940871488700793,-0.256368872,-0.188919736,-0.995153543,0.013723228786827869,0.008242222,0.097021458,0.019074910998489094,0.025716928,2.9469737335316184,Home
170,-133.8888889,9.943943856989296,-0.255430912,-0.189128818,4.0031251841161433E-5,1.6160765086363965E-4,9.192361663665297E-5,0,0.21931712329387665,1.1439763307571411,9.939000129699707,0.005472527,0,160.1999969482422,-86.9154924,40.3848539,-103.9208176,-9.987285776,-33.45557133,-40.80045956,-35.78857731,-6.395727901,0.001467631,-2.51E-04,9.587781811223446E-4,-0.021492334,0.014516518324685907,5.500590563209239E-4,9.943943856989296,-0.255430912,-0.189128818,-0.995153694,0.013696213117212926,0.008264118,0.097021844,0.019113254597754155,0.025658888905083093,2.946973046052803,Home
171,-113.125,9.924435004,-0.257475264,-0.189639906,4.4479163689086735E-6,-6.38E-05,1.7495139940524275E-4,0,0.14866068959236145,1.1539369821548462,9.939000129699707,0.003638406,0,160.1999969482422,-86.9154924,40.3848539,-103.9193536,-9.993629789,-33.53230938,-40.79948345,-35.79260303,-6.471367893,-0.009178143,-0.002188796,2.698737730100317E-4,-0.021527917,0.014291157240717157,6.330868379592679E-4,9.924435004,-0.257475264,-0.189639906,-0.995156467,0.013704455014571402,0.008265402,0.096992176,0.019116650832798874,0.025675615,2.9470324562591257,Home
172,-127.3333333,9.896996220338691,-0.26208958,-0.18898943,5.1892364230368614E-5,-2.42E-04,5.6340281164400206E-5,0,0.14866068959236145,1.1639416217803955,9.939000129699707,0.001692008,0,160.1999969482422,-86.9154924,40.3848539,-103.8595741,-10.00851378,-33.61282917,-40.74006931,-35.80797535,-6.552863889,-0.015709609,-0.003305577,-7.72E-05,-0.021480473,0.014113240622128676,5.144757214137941E-4,9.896996220338691,-0.26208958,-0.18898943,-0.99515997,0.013904940029515804,0.008213915,0.096932018,0.019051618,0.026085854969123034,2.947149816068631,Home
173,-141.375,9.886983408511263,-0.262382874,-0.189407593,-1.06E-04,-4.70E-05,1.1747062671929598E-5,0,0.14866068959236145,1.1739469766616821,9.942000389099121,0.003849046,0,160.1999969482422,-86.9154925,40.3848539,-103.8992238,-10.00973372,-33.52864956,-40.77910938,-35.80956116,-6.468317919,-0.005970386,-0.001185065,-4.75E-04,-0.021638089,0.014307922495600697,4.698825040787387E-4,9.886983408511263,-0.262382874,-0.189407593,-0.995157024,0.014055136304635268,0.008222617,0.096939865,0.019098405045672104,0.026382996,2.9471301711522617,Home
174,-138.4444444,9.888539906844352,-0.263419569,-0.190522696,-2.33E-04,-1.94E-04,-3.85E-05,0,0.14866068959236145,1.1839474439620972,9.960000038146973,0.005318957,0,160.1999969482422,-86.9154924,40.3848538,-103.9015416,-10.01229578,-33.55402554,-40.78203747,-35.81261101,-6.494303908,3.273047289802033E-5,-3.01E-04,-9.49E-04,-0.021765139,0.014160685114634848,4.195868285164888E-4,9.888539906844352,-0.263419569,-0.190522696,-0.995153716,0.014160543698274974,0.008248232,0.096956312,0.019170374,0.026587531133328828,2.947093882607025,Home
175,-125.125,9.894719633083898,-0.264125219,-0.189988375,-1.62E-04,-7.56E-05,-2.67E-05,0,0.14866068959236145,1.193938136100769,9.984000205993652,0.003858421,0,160.1999969482422,-86.9154924,40.3848538,-103.9669339,-10.02620374,-33.56622543,-40.84669739,-35.8257872,-6.506137881,0.002946974,-7.75E-04,2.651325996639659E-4,-0.021693973,0.014279296187665855,4.3144793751495847E-4,9.894719633083898,-0.264125219,-0.189988375,-0.995148919,0.014170798120423428,0.008277915,0.097001481,0.019232681925290998,0.026601305104864453,2.947002072936123,Home
176,-112.5555556,9.904128232048553,-0.26177886,-0.189732831,-6.67E-05,-1.63E-05,-5.04E-05,0,0.20615528523921967,1.0533621311187744,10.012999534606934,0.023583117872476578,0,160.1999969482422,-86.9154925,40.3848542,-103.8925139,-9.979355774,-33.56195568,-40.77227734,-35.77820728,-6.501867905,0.007104207,0.00128256,-1.24E-04,-0.021599084,0.014338602,4.0772571725752746E-4,9.904128232048553,-0.26177886,-0.189732831,-0.995152725,0.014146448800213707,0.008242879,0.096969005,0.019157308,0.026560268789819142,2.9470688602299364,Home
177,-119.875,9.946868044658771,-0.256508262,-0.189430824,-1.93E-05,1.2602431934724735E-4,-5.04E-05,0,0.12727922201156616,1.0634219646453857,10.034000396728516,0.012163979932665825,0,160.1999969482422,-86.9154924,40.3848542,-103.9139861,-10.00326775,-33.52291553,-40.79496914,-35.80211926,-6.462827883,0.020770647,0.002830893,9.974964614053374E-4,-0.021551639,0.014480935,4.077257183877733E-4,9.946868044658771,-0.256508262,-0.189430824,-0.995149165,0.013927787442881506,0.008276831,0.097034202,0.019184022020657086,0.026117149595786066,2.946942262279177,Home
178,-127.8888889,9.956661765,-0.254286296,-0.188779902,1.8977779031559392E-4,1.8532988185840612E-4,1.0378472846073723E-4,0,0.14866068959236145,1.0734351873397827,10.050999641418457,0.005025456,0,160.1999969482422,-86.9154924,40.3848542,-103.9250879,-10.02034777,-33.57049526,-40.80607136,-35.82029694,-6.51052989,0.006058063,0.001307633,0.001145559,-0.021456751,0.014540240638753742,5.619201687101311E-4,9.956661765,-0.254286296,-0.188779902,-0.995153357,0.013700769,0.008246621,0.097026168,0.019079411420428637,0.025671273885855397,2.946964694458304,Home
179,-138.875,9.951810577540721,-0.254661377,-0.18880358,2.994930758186191E-4,-2.82E-05,1.8681250444785194E-4,0,0.12727922201156616,1.0833079814910889,10.050000190734863,0.003334611,0,160.1999969482422,-86.9154925,40.3848542,-103.9075198,-9.989237757,-33.55109753,-40.78740532,-35.79065125,-6.491253891,-0.001131502,-0.001100018,8.13756174254186E-4,-0.021385584,0.014326740589752359,6.44947935655279E-4,9.951810577540721,-0.254661377,-0.18880358,-0.995152322,0.013610703436639702,0.008249011,0.09704918,0.019067213554116128,0.025491083203588876,2.946920561558992,Home
180,-139.5555556,9.949470002,-0.253331385,-0.188129873,1.0971528437277936E-4,4.299653544841172E-5,1.1564583463359227E-4,0,0.12727922201156616,1.0934699773788452,10.041000366210938,0.002369578,0,160.1999969482422,-86.9154925,40.3848542,-103.8872681,-10.01680978,-33.59587124,-40.76764145,-35.81773518,-6.5354179,-0.001379995,-1.61E-04,0.001097294,-0.021575362,0.014397907260696865,5.737812714922486E-4,9.949470002,-0.253331385,-0.188129873,-0.995153484,0.013582487916121783,0.0082272,0.097043098,0.019018131,0.025439275,2.946934019477622,Home
181,-137.5555556,9.941254755,-0.25473107,-0.188222798,1.5715973166911636E-4,-6.38E-05,-5.04E-05,0,0.1414213627576828,1.1033449172973633,10.032999992370605,0.010232193395495415,0,160.1999969482422,-86.9154925,40.384854,-103.9023956,-9.96056777,-33.5353595,-40.78276936,-35.76051727,-6.475393887,-0.004485232,-7.30E-04,9.127683141856518E-4,-0.021527917,0.014291157,4.077257149970358E-4,9.941254755,-0.25473107,-0.188222798,-0.995154581,0.013611209,0.008217223,0.097028688,0.019003490510496122,0.025498661,2.9469625371173747,Home
182,-120.625,9.901000643239438,-0.260013285,-0.190522695,2.40187515567952E-4,-1.59E-04,1.9867361175095283E-4,0,0.12727922201156616,1.1133512258529663,10.022000312805176,0.007250508,0,160.1999969482422,-86.9154925,40.384854,-103.9560762,-9.977403822,-33.47887352,-40.83571732,-35.77540119,-6.419029884,-0.021095739,-0.004086225,-0.001832182,-0.021444889,0.014196268318998582,6.56809057651576E-4,9.901000643239438,-0.260013285,-0.190522695,-0.995156483,0.013763450294082026,0.008206747,0.096988563,0.019011267759267567,0.025804512871845254,2.947039782,Home
183,-111.5555556,9.886199358597542,-0.258599079,-0.191080246,1.6445887852639245E-4,-4.70E-05,2.466883037973625E-4,0,0.14866068959236145,1.123352051,10.015000343322754,0.003490512,0,160.1999969482422,-86.9154925,40.384854,-103.9535137,-9.952637768,-33.47789753,-40.83315544,-35.7529533,-6.417931876,-0.008724075,-5.60E-04,-5.04E-04,-0.021520618,0.014307922,7.048237435251045E-4,9.886199358597542,-0.258599079,-0.191080246,-0.99514544,0.013897547713265969,0.008318201,0.097073209,0.019261526,0.026048155841775812,2.9468635343588314,Home
184,-106.25,9.889472100341205,-0.258163492,-0.188873274,2.9652779560210635E-6,-2.54E-04,-1.45E-04,0,0.15556348860263824,1.1333619356155396,10.008999824523926,0.006336912,0,160.1999969482422,-86.9154925,40.3848539,-103.9392394,-10.03632981,-33.40445339,-40.81863743,-35.83688923,-6.344487901,5.247893842678625E-4,-1.35E-04,0.001297255,-0.021682112,0.014101379505783608,3.1283681588337837E-4,9.889472100341205,-0.258163492,-0.188873274,-0.995151539,0.013912185258006008,0.008301638,0.097010001,0.019229740211830555,0.026081730584496435,2.946990651991761,Home
185,-100.7777778,9.894763048412731,-0.2590579,-0.191033783,6.22708415974257E-5,3.158021011859974E-4,1.1564580863793787E-4,0,0.1414213627576828,1.143349528312683,10.015999794006348,0.00393211,0,160.1999969482422,-86.9154925,40.3848539,-103.940948,-10.02059176,-33.50144337,-40.82107727,-35.82176109,-6.441721883,0.00318255,0.001158984,1.3585026981761155E-4,-0.021622806,0.014670712864297686,5.73781254538561E-4,9.894763048412731,-0.2590579,-0.191033783,-0.995151449,0.014022697920648797,0.008339264,0.096991634,0.019325715607231102,0.026294748958887407,2.947023882449252,Home
186,-119.625,9.897809242,-0.259388944,-0.195052797,1.5715973619009974E-4,1.1416321882562151E-4,2.2239582861764627E-4,0,0.1345362365245819,1.1533489227294922,12.291999816894531,0.001577584,0,160.1999969482422,-86.9154925,40.3848539,-103.9119121,-9.994239826,-33.54194733,-40.79204124,-35.79455521,-6.481737885,0.0017484,-0.001436571,-8.49E-04,-0.021527917,0.014469073940683337,6.805312688670401E-4,9.897809242,-0.259388944,-0.195052797,-0.995134064,0.013918616411104364,0.00849673,0.097171254,0.019623667580410113,0.026053439898108974,2.946661361212869,Home
187,-129.8888889,9.918072756054332,-0.256865445,-0.197213307,2.046041823561909E-4,1.971909914219987E-4,1.0378470246508284E-4,0,0.1345362365245819,1.1634172201156616,12.310999870300293,5.802934756502509E-4,0,160.1999969482422,-86.9154925,40.3848539,-103.9119117,-9.990213776,-33.5251115,-40.79167522,-35.7895533,-6.465389895,0.013061958609275448,-3.24E-04,-8.92E-04,-0.021480473,0.014552101709888977,5.619201517564435E-4,9.918072756054332,-0.256865445,-0.197213307,-0.995123333,0.013847240490965473,0.008600719,0.097282087,0.019819673783715488,0.025888905399343343,2.9464377083824678,Home
188,-127.375,9.954260285084064,-0.249644451,-0.193450508,8.599306072461085E-5,6.671875966170314E-5,-1.33E-04,0,0.15620499849319458,1.173436164855957,12.329999923706055,1.5196278400253505E-4,0,160.1999969482422,-86.9154925,40.3848539,-103.8801926,-9.95666379,-33.59782356,-40.7601992,-35.7561253,-6.538101873,0.016114716390961584,0.003239106,0.002519132,-0.021599084,0.014421629484345033,3.246979271423397E-4,9.954260285084064,-0.249644451,-0.193450508,-0.995124554,0.013618610537095555,0.008570819,0.097304586,0.019716031994055777,0.025439207107552046,2.946398936,Home
189,-135.1111111,9.949467066,-0.250232911,-0.195192184,2.4018751443770613E-4,-1.35E-04,2.0756945692147444E-5,0,0.12727922201156616,1.1834614276885986,12.333999633789062,1.1249824638071004E-5,0,160.1999969482422,-86.9154925,40.3848539,-103.9045921,-9.963739824,-33.43226933,-40.7841114,-35.76295696,-6.371937885,-0.001241786,2.164599096890792E-4,-2.42E-04,-0.021444889,0.014219990614982485,4.7889238594154133E-4,9.949467066,-0.250232911,-0.195192184,-0.995131937,0.013475893951446107,0.008519099,0.097253541,0.019583866452273814,0.025166212752895448,2.946506349785814,Home
190,-139.5,9.947869884157644,-0.251304457,-0.196678988,1.690208434932006E-4,3.113542418945038E-5,6.820139298848447E-5,0,0.1345362365245819,1.193376898765564,12.335000038146973,0.003834812,0,160.1999969482422,-86.9154924,40.3848539,-103.8992237,-9.907131853,-33.56683537,-40.77862122,-35.70708141,-6.507113914,3.965896310158146E-4,-0.001252718,-4.32E-04,-0.021516056,0.014386046126267864,5.263368326727554E-4,9.947869884157644,-0.251304457,-0.196678988,-0.99512485,0.013462152702788126,0.008593228,0.097321421,0.019730487729883887,0.025123077019759753,2.946368418850945,Home
191,-134.3333333,9.948659786,-0.24987573,-0.196144668,2.9949307355812743E-4,-6.38E-05,1.2750695097865988E-4,0,0.1414213627576828,1.102920413017273,10.076000213623047,0.015137958340346813,0,160.1999969482422,-86.9154925,40.3848542,-103.9153278,-9.922747822,-33.48070351,-40.79509132,-35.72111126,-6.4203719,-1.86E-04,-3.65E-04,1.9978391892701676E-4,-0.021385584,0.014291157249759124,5.856423906629309E-4,9.948659786,-0.24987573,-0.196144668,-0.995122801,0.013447938884780245,0.008604917,0.097343317,0.019751533486166047,0.025092070922255516,2.9463244711311116,Home
192,-138.7777778,9.933112061139449,-0.251667443,-0.196028511,1.8088195531728486E-4,1.4974653960467832E-4,-1.10E-04,0,0.1345362365245819,1.1130056381225586,10.07800006866455,0.010759038850665092,0,160.1999969482422,-86.9154925,40.3848542,-103.8950757,-9.948001785,-33.49534348,-40.77508327,-35.74709724,-6.435499911,-0.007184779,-2.89E-04,7.93539204643768E-4,-0.021504195,0.014504657,3.4842015700686037E-4,9.933112061139449,-0.251667443,-0.196028511,-0.995122456,0.013544853098545839,0.008624298,0.09733163,0.019808778810558966,0.025281431,2.946345076977628,Home
193,-129.375,9.937316977862016,-0.250738193,-0.196725451,9.397650249481488E-5,7.048237994940091E-5,-2.35E-05,0,0.1345362365245819,1.1229586601257324,10.085000038146973,0.010206076316535473,0,160.1999969482422,-86.9154925,40.3848543,-103.8657966,-9.905545759,-33.51901138,-40.74726719,-35.70525116,-6.459045901,5.919566521277794E-4,3.445969464687201E-4,8.52562773686189E-4,-0.0215911,0.014425393113364967,4.346413160629499E-4,9.937316977862016,-0.250738193,-0.196725451,-0.995119565,0.013537325457526514,0.008650982,0.097359894,0.019861149,0.025260683722220935,2.946287792462569,Home
194,-139.75,9.940508490627252,-0.250526207,-0.19600528,2.0460417896545337E-4,9.044098783085502E-5,2.1053473374724966E-4,0,0.14212670922279358,1.1329602003097534,10.079999923706055,0.005509918,0,160.1999969482422,-86.9154925,40.3848543,-103.8755556,-9.975817785,-33.51461926,-40.7549535,-35.77564514,-6.454653902,0.002650622,7.770941095444762E-5,0.001001547,-0.021480473,0.014445351717035168,6.686701717361519E-4,9.940508490627252,-0.250526207,-0.19600528,-0.995121639,0.013511488159883369,0.00863465,0.09734376,0.01982317,0.025212760508349797,2.9463212628966398,Home
195,-135.8888889,9.941283828,-0.249663745,-0.195517423,9.78541725486951E-5,-1.63E-05,8.006250481256872E-5,0,0.1345362365245819,1.1429940462112427,10.085000038146973,0.002768491,0,160.1999969482422,-86.9154925,40.3848542,-103.867382,-9.942023754,-33.4314151,-40.74726738,-35.74246132,-6.371571889,1.3539397600785042E-4,-7.53E-04,6.991339829361554E-4,-0.021587223,0.014338602,5.381979450619626E-4,9.941283828,-0.249663745,-0.195517423,-0.995128939,0.013418103703885402,0.008601353,0.097284958,0.019737137427318443,0.025034532186041757,2.9464425786027633,Home
196,-143,9.938388574470594,-0.248595107,-0.194239701,1.690208434932006E-4,-1.71E-04,8.006250481256872E-5,0,0.1345362365245819,1.1528902053833008,10.07699966430664,0.002858546,0,160.1999969482422,-86.9154925,40.3848542,-103.8919041,-9.992775803,-33.45642521,-40.77215523,-35.79394516,-6.396459913,-0.002764406,-1.93E-04,6.558581173998639E-4,-0.021516056,0.014184407265947281,5.381979456270854E-4,9.938388574470594,-0.248595107,-0.194239701,-0.99513859,0.013386590975942542,0.008538801,0.097196055,0.019604202450334448,0.024985749003233262,2.9466236077466057,Home
197,-146.7777778,9.899365749,-0.254516178,-0.193960927,1.3343750802094785E-4,-1.47E-04,1.630902875811585E-4,0,0.1345362365245819,1.1629451513290405,10.065999984741211,0.001572785,0,160.1999969482422,-86.9154925,40.3848542,-103.9198423,-9.980575829,-33.49619743,-40.79948315,-35.78052513,-6.436353917,-0.019835287,-0.0035429,-7.79E-05,-0.021551639,0.014208129534805283,6.212257261351835E-4,9.899365749,-0.254516178,-0.193960927,-0.995145717,0.013537374478810042,0.008495682,0.097105925,0.019545496233458658,0.025296056064442525,2.946802118449535,Home
198,-138.375,9.883576814944927,-0.257493022,-0.195613253,1.0971528437277936E-4,-6.38E-05,5.6340281164400206E-5,0,0.21931712329387665,1.172932744026184,10.03600025177002,6.53912196867168E-4,0,160.1999969482422,-86.9154925,40.3848542,-103.9167922,-9.939583817,-33.54341125,-40.79826344,-35.73880135,-6.483689914,-0.008523182,-0.002689328,-8.54E-04,-0.021575362,0.014291157285926991,5.144757231091628E-4,9.883576814944927,-0.257493022,-0.195613253,-0.99513926,0.013762947479353367,0.008543212,0.097136199,0.019684924590356142,0.025735227,2.946734502477553,Home
199,-138.8888889,9.886077380874783,-0.256848019,-0.197050688,1.9274306827161497E-4,-1.59E-04,1.7495139940524275E-4,0,0.2121320366859436,1.1829099655151367,10.005999565124512,0.009900826,0,160.1999969482422,-86.9154925,40.3848544,-103.9071539,-9.95336978,-33.47191936,-40.78642929,-35.75295341,-6.411831927,4.0304313585596176E-5,-7.57E-04,-0.001164962,-0.021492334,0.014196268364208417,6.330868385243908E-4,9.886077380874783,-0.256848019,-0.197050688,-0.995133119,0.013867284695717316,0.008603177,0.097178981,0.019825793242136253,0.025930397,2.9466443895136267,Home
200,-144,9.891978180524214,-0.256069771,-0.196493136,2.668750160418957E-5,1.927431293048905E-5,3.26180575162317E-5,0,0.17691805958747864,1.1929429769515991,9.980999946594238,0.007069701,0,160.1999969482422,-86.9154925,40.3848544,-103.8909279,-9.969229813,-33.50327335,-40.7711795,-35.7697892,-6.443429894,0.002635113,-3.09E-05,9.332756394321478E-5,-0.021658389,0.014374185,4.907535011563631E-4,9.891978180524214,-0.256069771,-0.196493136,-0.995131174,0.013825821807806931,0.008630762,0.097202395,0.01987323,0.025842026,2.946597664,Home
201,-139.125,9.896996303669457,-0.256357259,-0.19600528,3.8548613428273825E-5,1.4974654243029293E-4,4.4479167079824265E-5,0,0.1345362365245819,1.202948808670044,12.326000213623047,0.003102759,0,160.1999969482422,-86.9154925,40.3848544,-103.9346043,-9.974109812,-33.50717743,-40.81448921,-35.77418125,-6.447089901,0.002973445,-6.74E-04,0.001032262,-0.021646528,0.014504657217382807,5.02614608459464E-4,9.896996303669457,-0.256357259,-0.19600528,-0.995129703,0.013826963012513606,0.008648843,0.097215661,0.019909797,0.025840513,2.9465705121605144,Home
202,-137.3333333,9.935693731585753,-0.2524515,-0.196493137,3.854861455851967E-5,-3.37E-04,-2.28E-04,0,0.1345362365245819,1.2129868268966675,12.336000442504883,0.003624919,0,160.1999969482422,-86.9154925,40.3848543,-103.8792162,-9.922503796,-33.42702362,-40.75885723,-35.7228191,-6.366813917,0.020767174878166716,0.001360908,-7.64E-04,-0.021646528,0.014018351646158302,2.2980903198454276E-4,9.935693731585753,-0.2524515,-0.196493137,-0.995141919,0.013685834838204014,0.008567533,0.097117638,0.019717829139197913,0.025577348,2.946773103139933,Home
203,-120,9.957176949,-0.251368342,-0.193263987,3.406648197247145E-4,-1.29E-04,2.3494099598163022E-5,0,0.1345362365245819,1.2229870557785034,12.35200023651123,0.00491455,0,160.1999969482422,-86.9154926,40.3848543,-103.8543275,-9.964349775,-33.5148634,-40.73421337,-35.76466507,-6.454897885,0.010970161511347843,0.001240203,3.861148770038898E-4,-0.021344412,0.014225693052419676,4.816295421243502E-4,9.957176949,-0.251368342,-0.193263987,-0.995154951,0.013592255,0.008466244,0.097006023,0.019495050637767866,0.025412971,2.9470022779244642,Home
204,-88.66666667,9.954894352885125,-0.252007202,-0.192334735,1.2157640071784698E-4,5.4857638230529224E-5,-2.28E-04,0,0.191049725,1.2329437732696533,12.371000289916992,0.003171623,0,160.1999969482422,-86.9154926,40.3848543,-103.8501798,-9.998021803,-33.5259655,-40.73018742,-35.79760525,-6.465999918,9.75692156449105E-4,0.001694009,0.001298183,-0.021563501,0.014409768349916032,2.2980902350769894E-4,9.954894352885125,-0.252007202,-0.192334735,-0.995157704,0.013623044907468037,0.00844223,0.096975662,0.019452445,0.025479529414651463,2.9470631682757036,Home
205,-78.375,9.949042941,-0.252053665,-0.193984157,8.599307202706927E-5,1.260242763979053E-4,-2.16E-04,0,0.191049725,1.2429533004760742,12.395999908447266,0.002600815,0,160.1999969482422,-86.9154925,40.3848543,-103.9231359,-9.967887802,-33.43287918,-40.80253304,-35.76820335,-6.373279901,-0.002966186,-7.26E-04,-2.17E-04,-0.021599084,0.014480935025381522,2.4167012911543106E-4,9.949042941,-0.252053665,-0.193984157,-0.995158331,0.013507724,0.008462051,0.096983497,0.019469656809730437,0.025245954092700505,2.947049726560278,Home
206,-94.88888889,9.945909657524627,-0.251972355,-0.195447728,3.706597558050914E-4,-1.47E-04,4.240346957197033E-4,0,0.191049725,1.253028154373169,10.069999694824219,0.005656358,0,160.1999969482422,-86.9154925,40.3848542,-103.9259422,-9.960201807,-33.54475346,-40.80631523,-35.76027313,-6.485031886,-0.002592753,-0.001130455,-8.46E-04,-0.021314417,0.014208129498637418,8.821701856999143E-4,9.945909657524627,-0.251972355,-0.195447728,-0.995153404,0.013492110429458248,0.008508567,0.097031944,0.019560480707334082,0.025204871374281866,2.9469515513447884,Home
207,-80.5,9.924255232209141,-0.250343261,-0.192520586,2.4018753365188548E-4,2.9207987866807476E-4,2.461180285306521E-4,0,0.191049725,1.1122632026672363,10.067999839782715,0.016727792099118233,0,160.1999969482422,-86.9154926,40.3848545,-103.9402158,-9.944463816,-33.50449341,-40.82010132,-35.74404728,-6.444527903,-0.009122997,4.556876363106144E-5,0.002718824,-0.02144489,0.014646990622565585,7.042534947757003E-4,9.924255232209141,-0.250343261,-0.192520586,-0.995148154,0.013493503579526271,0.008554838,0.09708172,0.019654130653559584,0.025197687,2.9468503438153313,Home
208,-96.11111111,9.937398250286396,-0.251496589,-0.19331246,2.757708499099589E-4,-8.75E-05,3.4100695250971805E-4,0,0.14212670922279358,1.1222381591796875,10.069999694824219,0.012766879051923752,0,160.1999969482422,-86.9154926,40.3848546,-103.96669,-10.00168182,-33.53011345,-40.84620934,-35.8022411,-6.470391908,0.005612762,-0.00169295,5.89300995891534E-4,-0.021409306,0.014267435,7.991423882381286E-4,9.937398250286396,-0.251496589,-0.19331246,-0.995153395,0.013456908759923236,0.008509626,0.097037125,0.019555828,0.02513452,2.9469420192311113,Home
209,-61.11111111,9.939155171218427,-0.248322139,-0.192543817,4.4182642561935105E-4,-3.13E-04,3.7659028911221664E-4,0,0.14866068959236145,1.1322705745697021,10.079999923706055,0.006342231,0,160.1999969482422,-86.9154926,40.3848546,-103.9796222,-9.987041798,-33.47777538,-40.85950722,-35.78723526,-6.417809892,1.5013426252939168E-4,2.961262915898295E-4,0.001354305,-0.021243251,0.014042074,8.347257321872252E-4,9.939155171218427,-0.248322139,-0.192543817,-0.995158028,0.013367615802918823,0.008470768,0.097005346,0.019460265,0.024964946,2.9470090287402995,Home
210,-71.125,9.915430207854335,-0.250235816,-0.193171061,2.757708600821715E-4,-4.31E-04,2.223958139244503E-4,0,0.14212670922279358,1.1423150300979614,10.072999954223633,0.004903927,0,160.1999969482422,-86.9154927,40.3848546,-103.9003225,-9.98313776,-33.51535133,-40.77935322,-35.78174522,-6.455263886,-0.012266289,-0.002574153,-0.001409089,-0.021409306,0.013923462756086611,6.805312683019172E-4,9.915430207854335,-0.250235816,-0.193171061,-0.995164965,0.013397673271524095,0.008409027,0.096935307,0.019341421883227756,0.025038128085796117,2.947150598451929,Home
211,-71.44444444,9.893842475,-0.256789944,-0.196655755,2.1646530887347112E-4,-7.28E-04,2.461180262701604E-4,0,0.191049725,1.1521931886672974,10.07800006866455,0.005199017,0,160.1999969482422,-86.9154927,40.3848545,-103.9341155,-10.03767178,-33.45740139,-40.81351334,-35.8378653,-6.397679863,-0.012235419,-0.005057086,-0.005328311,-0.021468612,0.013626935001173355,7.042535122945109E-4,9.893842475,-0.256789944,-0.196655755,-0.995165232,0.013536887930579555,0.008356493,0.09691759,0.019263493783265643,0.025325769,2.947184092790178,Home
212,-113.25,9.880437971318809,-0.258433557,-0.191823647,2.3494127470677576E-4,-3.05E-04,3.171706417700849E-4,0,0.20518285036087036,1.162200927734375,10.079000473022461,0.003733051,0,160.1999969482422,-86.9154927,40.3848545,-103.8971507,-9.978501749,-33.52462341,-40.77740135,-35.7782074,-6.46453589,-0.00884134,-0.003606167,-0.001592408,-0.021450136,0.014049487098908195,7.753061346682863E-4,9.880437971318809,-0.258433557,-0.191823647,-0.995167264,0.013759982243825037,0.008340759,0.096866732,0.019274286,0.025773917,2.9472812780967126,Home
213,-120.4444444,9.873578932678814,-0.25702516,-0.194030619,2.2832640713460527E-4,-2.18E-04,2.698402860861959E-4,0,0.14212670922279358,1.172192096710205,10.092000007629395,0.001842166,0,160.1999969482422,-86.9154927,40.3848545,-103.9158157,-9.971181793,-33.50742153,-40.7960675,-35.7700333,-6.447455873,-0.003817058,-0.001608348,-0.00165407,-0.021456751,0.014136962845776846,7.279757235099752E-4,9.873578932678814,-0.25702516,-0.194030619,-0.99515588,0.013806255181654565,0.008436103,0.096969,0.019475772,0.025845541320379497,2.9470722004047873,Home
214,-133.75,9.882133835727728,-0.257190683,-0.194774021,2.046041823561909E-4,-1.35E-04,1.986736219231654E-4,0,0.14212670922279358,1.182273507118225,10.111000061035156,7.044427911750972E-4,0,160.1999969482422,-86.9154927,40.3848545,-103.9477798,-9.962763758,-33.50546925,-40.82729931,-35.76368938,-6.445381908,0.003879825,-0.001339149,-8.53E-04,-0.021480473,0.014219990633066419,6.56809057651576E-4,9.882133835727728,-0.257190683,-0.194774021,-0.995147088,0.013836188974238715,0.008509781,0.097048523,0.019630371,0.025889253,2.9469097702248583,Home
215,-139,9.890863113032962,-0.255221828,-0.195401267,1.6902084462344646E-4,-1.63E-05,-1.69E-04,0,0.15620499849319458,1.1922204494476318,10.107000350952148,2.061921841232106E-4,0,160.1999969482422,-86.9154927,40.3848545,-104.0078039,-9.984357748,-33.46679554,-40.88768917,-35.78430725,-6.406951904,0.004851147,0.001128687,-2.80E-04,-0.021516056,0.014338601706097426,2.891145990166849E-4,9.890863113032962,-0.255221828,-0.195401267,-0.995143253,0.013856222,0.008560621,0.097080506,0.019736337,0.025918612708744494,2.946843684298321,Home
216,-148.125,9.895741815,-0.25656634,-0.195006335,5.040972525235808E-5,-4.00E-05,4.447916934031595E-5,0,0.15620499849319458,1.2021905183792114,12.282999992370605,2.4348597435164265E-5,0,160.1999969482422,-86.9154927,40.3848545,-103.9158159,-9.94812377,-33.5392635,-40.79618919,-35.74892742,-6.479175887,0.003198466,-6.89E-04,4.484649132756354E-4,-0.021634667,0.014314879491491225,5.026146101548328E-4,9.895741815,-0.25656634,-0.195006335,-0.995142945,0.013825173507833365,0.00857397,0.097086952,0.019757027,0.025854085508770157,2.946831161536059,Home
