seconds_elapsed,accelerometerUncalibrated_z,accelerometerUncalibrated_y,accelerometerUncalibrated_x,gyroscope_z,gyroscope_y,gyroscope_x,magnetometerUncalibrated_z,magnetometerUncalibrated_y,magnetometerUncalibrated_x,orientation_qz,orientation_qy,orientation_qx,orientation_qw,orientation_roll,orientation_pitch,orientation_yaw,location_bearingAccuracy,location_speedAccuracy,location_verticalAccuracy,location_horizontalAccuracy,location_speed,location_bearing,location_altitude,location_longitude,location_latitude,totalAcceleration_z,totalAcceleration_y,totalAcceleration_x,magnetometer_z,magnetometer_y,magnetometer_x,accelerometer_z,accelerometer_y,accelerometer_x,gyroscopeUncalibrated_z,gyroscopeUncalibrated_y,gyroscopeUncalibrated_x,microphone_dBFS,class
0,9.616916199525198,0.4574964714702219,0.26492410015392426,-0.382472612,0.23590451272097057,-0.056045235,-112.4967065,67.58443991343181,-17.18014139,0.18356034188878304,0.002787114,0.030004978,0.9821586094650567,-0.005580523,-0.059879702,-0.370114495,0,1.5,1.087048053741455,28.701000213623047,1.815749565139413E-4,0,154.6999969482422,-86.9097785,40.4260621,9.657537722120098,0.4955606061015643,0.27396059753921104,-50.93329094,23.920295486450197,11.09736385345459,-0.523772417,-0.115908519,0.21485694892266216,-0.399323072,0.26487864039838316,-0.079642266,-86.7,Campus
1,10.217044881246622,0.22370568724367226,0.03323236,0.044863173,0.007499188,0.055051867,-111.9911179,72.19593834,-15.18241167,0.2057078913288209,0.009386796,0.012619831138154835,0.9778224212452046,0.013761422740589675,-0.028256742,-0.414040446,0,1.5,1.087048053741455,28.701000213623047,1.815749565139413E-4,0,154.6999969482422,-86.9097785,40.4260621,10.217044881246622,0.22370568724367226,0.03323236,-50.43150494,28.575815448760988,13.136959781646729,0.2940811231298354,-0.055653016,0.1679903468099034,0.023330806912763895,0.023855661146017244,0.055120069,-21.375,Campus
2,9.639845504210545,1.390367999350509,-0.44463074,-0.068434167,-0.027111535,0.088725564,-111.6969762,68.27168678283691,-15.02881367,0.1792636121650344,0.036149871,0.066041133,0.9804117633301077,0.047861698,-0.143168052,-0.358508789,0,1.5,1.087048053741455,28.701000213623047,1.815749565139413E-4,0,154.6999969482422,-86.9097785,40.4260621,9.639845504210545,1.390367999350509,-0.44463074,-50.13711899,24.65131962,13.291411733627319,-0.172465565,-0.011806236,0.024735369,-0.089966534,-0.010752098,0.088787835,-29.33333333,Campus
3,9.796729921137246,1.1797690115941382,-0.985468326,0.00652806,-0.02149678,-0.009009997,-107.8320156,68.90047508239746,-16.79378774,0.1450634552437125,0.04807343,0.062411169313545366,0.9855727640170495,0.07757149,-0.136700452,-0.287230316,45,1.5,1.1170765161514282,39.54600143432617,0.7968113422393799,223.96298217773438,154.6999969482422,-86.9098332,40.4260189,9.796729921137246,1.1797690115941382,-0.985468326,-46.27191483,25.279985485076903,11.525583820343018,0.028411509,-0.174569422,-0.221162945,-0.015004306,-0.005132898,-0.008974413,-13.25,Campus
4,9.793977001338328,1.1130516540114452,-0.458379444,0.086958258,-0.010375506,-0.019317301,-106.6825317,67.98754894256592,-16.81062375,0.1697253662984348,0.021355301937431966,0.055352342,0.983205209,0.023644389739221647,-0.116102429,-0.340457785,45,0.5071533918380737,1.1271092891693115,41.96500015258789,1.1377618312835693,322.04949951171875,154.6999969482422,-86.9099572,40.425946,9.793977001338328,1.1130516540114452,-0.458379444,-45.12230911,24.367669525146486,11.509113817214965,-0.057380815,-0.025182101,-0.240144044,0.065425892,0.005980966,-0.019278753,-8.888888889,Campus
5,9.909210010639672,0.6702458857404954,-0.342205583,0.051434229,-0.00847773,-0.014240748,-106.0996159,67.21785079956055,-15.34845369,0.21515959096186368,0.013229580310772928,0.037041443933561014,0.9753139036373027,0.010353250328301072,-0.077634,-0.433693379,45,0.2365000993013382,1.1371028423309326,37.30099868774414,1.1282622814178467,313.6746520996094,154.6999969482422,-86.910066,40.4258714,9.909210010639672,0.6702458857404954,-0.342205583,-44.53963703,23.59711763381958,12.972625741958618,0.049002282,-0.101021202,-0.248173527,0.029901862709593136,0.00787133,-0.014203682,-15.75,Campus
6,9.975848901619031,0.8473089522528416,-0.015896007,0.12509173352397907,-0.046694233,0.016313477,-106.3331239,65.56938671,-15.01649173,0.24330820562770067,0.00737549,0.040873014,0.9681532122556445,-0.006122293,-0.081480898,-0.492978171,45,0.2549630403518677,1.147064447402954,33.176998138427734,1.1711541414260864,306.7197266,154.6999969482422,-86.9101267,40.4258381,9.975848901619031,0.8473089522528416,-0.015896007,-44.77277908,21.949019565582276,13.303123722076416,0.088957245,0.040510367,-0.079043478,0.10355936750335601,-0.030346655,0.016350543813653362,-16.11111111,Campus
7,9.656235787474994,0.617205952,0.092149804,0.12260409308454165,0.015423894,-0.008751561,-106.8917621,63.01165718078613,-13.07608174,0.3112769559598886,0.003494745,0.038150816,0.9486638617057067,-0.016601607,-0.074003816,-0.634548882,45,0.24271433055400848,1.1570698022842407,28.785999298095703,1.1907470226287842,311.8603820800781,154.6999969482422,-86.9101791,40.4258101,9.656235787474994,0.617205952,0.092149804,-45.33178318,19.39263159751892,15.243411712646484,-0.208307706,-0.12281209,-0.055809144,0.10107172851432832,0.031790489,-0.008711915,-13.44444444,Campus
8,9.592863731013919,0.5138180078938603,-0.047960993,0.1951790426143454,0.050626191,-0.039457471,-107.3715876,60.89886074066162,-9.270291834,0.35461968096714575,0.024641315,0.026963160228599042,0.9328210498522786,0.027112521766910997,-0.067721722,-0.725860753,45,0.21309849619865417,1.1671215295791626,23.709999084472656,1.191219687461853,300.9528503417969,154.6999969482422,-86.9102113,40.4257797,9.592863731013919,0.5138180078938603,-0.047960993,-45.81160912,17.279103689193725,19.049933614730836,-0.269735438,-0.155657602,0.21944575221503823,0.1736466765846804,0.066988594,-0.039435232,-32.75,Campus
9,10.016338181727141,0.44845097021027963,-0.501098875,0.21893684910519898,0.057398885289586865,-0.08296403,-108.6355077,55.25941089630127,-4.506313914,0.4517076449486816,0.034647153,0.013623331198740063,0.8888525841305557,0.051452576924223926,-0.055966412,-0.938902498,45,0.1966303139925003,1.7232108116149902,17.298999786376953,1.1644729375839233,290.57171630859375,154.79998779296875,-86.910234,40.4257492,10.016338181727141,0.44845097021027963,-0.501098875,-47.07504112,11.63928780555725,23.813667488098144,0.15192314722005604,-0.10434451,0.006883183,0.19740448471212996,0.073770184,-0.082913621,-35.22222222,Campus
10,10.102468127185858,1.030560253694364,-1.015076604,0.08933048,0.006823104,-0.043751194,-109.60919,50.70795703887939,-0.242414,0.5118882462237645,0.052332347,-0.00956738,0.8566561248695966,0.10040493920734785,-0.036388882,-1.074902863,45,0.23342742025852203,1.7332274913787842,12.333000183105469,1.0530227422714233,283.68133544921875,154.79998779296875,-86.9102494,40.4257363,10.102468127185858,1.030560253694364,-1.015076604,-48.04921101,7.087345840930939,28.07768953323364,0.25115752914576855,0.6694458920544791,-0.022224608,0.067798115,0.023182544,-0.043711161,-34,Campus
11,10.481053963448238,0.12474620786667304,-0.675763312,-0.022401192,-0.050869342,-0.165386896,-109.5883279,50.43333522796631,-5.02164191,0.522658349,0.014006667412157415,-0.026843816,0.8504019906219927,0.05095838,0.031133191,-1.102714521,45,0.23822125792503357,1.7431575059890747,10.697999954223633,1.1187195777893066,284.70062255859375,154.79998779296875,-86.9102638,40.4257337,10.481053963448238,0.12474620786667304,-0.675763312,-48.02834896,6.814919845871628,23.297973575592042,0.5787720633941946,0.436463042,-0.171165299,-0.043933557,-0.034502493,-0.165357244,-15.22222222,Campus
12,9.510233333477608,-0.105048366,0.31275515015183303,-0.055790224,0.087429736,0.21146879902163757,-107.203228,51.187782783508304,-9.24918582,0.5492266914219532,-0.004845691,-0.008433299,0.8345574140548706,0.001547723,0.019665343253489006,-1.164252403,45,0.4156074821949005,1.7531477212905884,8.645000457763672,1.6555277109146118,281.19024658203125,154.79998779296875,-86.9102957,40.4257479,9.510233333477608,-0.105048366,0.31275515015183303,-45.64337105,7.567537877559662,19.071161575317383,-0.517566824,0.099081616,0.3620494926728091,-0.077322588,0.10379066382923606,0.21154885905460247,-20.875,Campus
13,9.193480131,-0.395370386,-0.658020417,-0.004957946,0.00132103,0.01719861,-103.5995919,47.058326950073244,-5.067879901,0.574626917,0.046395688,-0.016491436,0.8156107363191624,0.09484064,-0.026195833,-1.226193136,45,0.43109646439552307,1.7632333040237427,7.190000057220459,2.0454206466674805,274.1600341796875,154.79998779296875,-86.9103453,40.4257661,9.193480131,-0.395370386,-0.658020417,-42.03900299,3.438447926752269,23.25356559753418,-0.58973755,-0.653479264,0.2621237120582062,-0.026485865,0.017687886,0.017240123943656285,-15.66666667,Campus
14,10.57740855911403,0.25812864758399795,-0.348112131,-0.255738915,0.069701826,0.007100354,-103.0308279,44.62259712219238,-4.876949902,0.5325421829825466,0.075134885,0.017955367892214268,0.8389083748882257,0.10945472233359096,-0.110499198,-1.12511641,45,0.40766939520835876,1.4826865196228027,6.526000022888184,2.112208843231201,273.64349365234375,154.79998779296875,-86.9103812,40.4257702,10.57740855911403,0.25812864758399795,-0.348112131,-41.47097122,1.0030839741975068,23.44327554702759,0.8783058333165438,-0.871420127,0.7089371559689346,-0.277266831,0.086062746,0.007167076,-12.375,Campus
15,9.753621384,-0.089672765,-0.776979126,-1.04076364,-0.10232285,0.1938609737288026,-101.8352281,62.42264102935791,-9.33995383,0.1790022191247401,0.086271234,0.024640243,0.9677168593823331,0.16196265700273216,-0.07390504,-0.360553991,45,0.40766939520835876,1.4826865196228027,6.526000022888184,2.112208843231201,273.64349365234375,154.79998779296875,-86.9103812,40.4257702,9.753621384,-0.089672765,-0.776979126,-40.27488319,18.802517657279967,18.98051568031311,-0.088253262,-0.798223706,0.8566669179397879,-1.062291552,-0.085958959,0.19393510686107052,-28.55555556,Campus
16,9.846848483224518,0.6050675977202296,-0.492814018,-0.007254554,-0.169689511,0.06605898,-104.5581459,71.05109046936035,-23.11533957,-0.048777337,0.016667747578625478,0.036937307,0.9966446763103448,0.036790842,-0.070488687,0.098821269,45,0.397994727,1.5025837421417236,6.340000152587891,1.6538156270980835,337.37384033203125,154.79998779296875,-86.9104144,40.4257841,9.846848483224518,0.6050675977202296,-0.492814018,-42.99792343,27.431455478668212,5.204031898975372,-0.013216875,-0.122993962,-0.156842974,-0.028786919,-0.153324146,0.066128664,-49,Campus
17,10.075792812606663,1.0348319054809534,-0.572340522,-0.084402648,0.035041487353737466,-0.009256687,-104.8809579,67.40768287658692,-24.1545355,-0.043094117,0.008984719,0.057437375778905474,0.9968578861309931,0.023538177,-0.114158501,0.087736987,45,0.39610832929611206,1.5125384330749512,6.399000168,1.627927303314209,353.4156799316406,154.79998779296875,-86.9104176,40.4258033,10.075792812606663,1.0348319054809534,-0.572340522,-43.32110119,23.786827583312988,4.164957910776138,0.23089295167189378,-0.071473423,-0.341058466,-0.105935011,0.051400741,-0.009196483,-40.125,Campus
18,9.86349372,0.6779267232756592,-0.898510708,-0.065634945,0.027442165980459128,-0.026006971,-104.8022681,69.03845657348633,-24.16380747,-0.086695336,0.027130163405813926,0.049443783021522955,0.9941615265549966,0.062930721,-0.093409526,0.17677360049729207,45,0.2875145375728607,1.5125384330749512,6.4070000648498535,1.4453247785568237,349.4407653808594,154.79998779296875,-86.9104199,40.4258156,9.86349372,0.6779267232756592,-0.898510708,-43.24216721,25.418333492279054,4.156905930042267,0.002931748,-0.247359607,-0.277287251,-0.087167311,0.043809016,-0.025965457,-33.125,Campus
19,9.530908765,0.8505090642539621,-0.42911092,-0.030087193,0.011425215976981862,-0.010290999,-104.6566,68.18677452087402,-24.72451954,-0.065694369,0.017998374573597053,0.050911041,0.9960188090222554,0.042889121,-0.098986235,0.13392107601015313,45,0.28284844756126404,1.2477275133132935,6.40500021,1.4451096057891846,357.0943908691406,155,-86.9104142,40.4258306,9.530908765,0.8505090642539621,-0.42911092,-43.09649906,24.567017517089845,3.5950959300994874,-0.328463017,-0.129718885,-0.005594098,-0.051619558,0.027774277,-0.010258381,-27.22222222,Campus
20,9.805217988282731,0.560300914,-0.840804193,-0.031463084,-0.034785676,0.005365672,-104.3849062,69.06432114,-23.30102364,-0.080118799,0.034888757220966723,0.040036187,0.9948153530509727,0.076941378,-0.073637766,0.16390400112253947,45,0.28284844756126404,1.2477275133132935,6.40500021,1.4451096057891846,357.0943908691406,155,-86.9104142,40.4258306,9.805217988282731,0.560300914,-0.840804193,-42.82431709,25.44456344604492,5.018347899913788,-0.05978101,-0.169854013,-0.080784425,-0.052995446,-0.018408446,0.005416081,-29.88888889,Campus
21,9.763541078104556,0.5195677515969259,-0.626196467,-0.0643065,-0.013459393,-0.012912304,-104.236554,70.91530471801758,-24.94302156,-0.097287468,0.025213428888553574,0.029561555261432094,0.9941191204543253,0.056217984,-0.053609764,0.19668981534184762,45,0.283312052,1.2677146196365356,6.2779998779296875,1.4169082641601562,357.36004638671875,155,-86.9104111,40.4258591,9.763541078104556,0.5195677515969259,-0.626196467,-42.67633099,27.294815444946288,3.3775699234008787,-0.136698195,-0.011402113,-0.068698828,-0.085838865,0.002910421,-0.012867824,-36,Campus
22,10.024209925761589,0.001964301,-0.749678235,0.11510467681427966,0.056737628,-0.080164807,-103.2011402,71.26373688,-24.14013962,-0.061351831,0.027725218275326837,0.007549798,0.9971118175867691,0.056980986,-0.011150108,0.12341080931494537,45,0.23343709111213684,1.2776947021484375,6.072999954223633,1.4119595289230347,359.39276123046875,155,-86.9104112,40.4258717,10.024209925761589,0.001964301,-0.749678235,-41.64152725,27.64373540878296,4.180817894935608,0.089658098,-0.101672867,-0.176142779,0.09357231,0.073110412,-0.080121811,-35.77777778,Campus
23,9.891043107486466,0.11348193952614821,-0.523946851,0.060116563,-0.020587925,-0.033740413,-102.1542577,73.22000633239746,-23.3146875,-0.029398145,0.022451765081976334,0.010943999259784372,0.9987120495259183,0.04570546,-0.020039476,0.059124527,45,0.2226894348859787,1.297738790512085,5.427000045776367,1.4022516012191772,357.2986145019531,155,-86.910412,40.4258883,9.891043107486466,0.11348193952614821,-0.523946851,-40.59354725,29.59939535140991,5.004561896324158,-0.024404012,-0.07851611,-0.074818699,0.038584197152550646,-0.004209213,-0.033684074,-50.875,Campus
24,10.045612446312765,0.3802177747349861,-0.949938977,0.008141171,-0.060975008,0.031033117938967583,-104.4188216,71.97572868347169,-22.52449358,-0.040121855,0.038444162590555775,0.028053434626696613,0.996989482,0.08061954,-0.052323122,0.08298685,45,0.20692898333072662,1.298005462,5.081999778747559,1.4233319759368896,353.22943115234375,154.29998779296875,-86.9104163,40.4259063,10.045612446312765,0.3802177747349861,-0.949938977,-42.85859917,28.35633731842041,5.796097881793976,0.22508036511615642,-0.124865484,-0.15586818,-0.013391197,-0.044602229,0.031089457059369503,-30.22222222,Campus
25,9.940325408305936,0.11820659375053297,-0.335149077,0.064932174,-0.040028288,-0.031700304,-103.9964581,73.15351646,-24.26396954,-0.01336755,0.018123952,0.009780717,0.999519867,0.036710497,-0.018935097,0.027188233697283404,45,0.20692898333072662,1.298005462,5.081999778747559,1.4233319759368896,353.22943115234375,154.29998779296875,-86.9104163,40.4259063,9.940325408305936,0.11820659375053297,-0.335149077,-42.43672333,29.533637371063232,4.055767917633057,0.044735575185238734,-0.08771376,0.025478629,0.043399808,-0.023671812,-0.031654343,-56.25,Campus
26,9.907075641224685,-0.001948528,-0.3849134,-0.052623306,0.0283273,-0.033609942,-103.5576241,75.18018028259277,-24.64046162,-0.019901227,0.023974678659974373,0.002653971,0.9990577541508721,0.048189797,-0.003902937,0.039908258578948023,45,0.22833101451396942,1.3079437017440796,4.534999847412109,1.4331588745117188,354.0310974121094,154.29998779296875,-86.9104226,40.4259318,9.907075641224685,-0.001948528,-0.3849134,-41.99801121,31.559569339752198,3.679763927459717,-0.013172497,-0.036212381,0.09408847,-0.074155671,0.044688221541893426,-0.033566946,-64.55555556,Campus
27,9.587988061812318,0.035241867,-0.495459482,0.034172205,-0.02822819,0.050676828682928596,-104.1948303,76.97443458557129,-25.22032745,-0.025949716,0.021524472219775468,-0.005249803,0.9989158562742747,0.043041217,0.012202438,0.051819464,45,0.22833101451396942,1.3079437017440796,4.534999847412109,1.4331588745117188,354.0310974121094,154.29998779296875,-86.9104226,40.4259318,9.587988061812318,0.035241867,-0.495459482,-42.63460724,33.35431148529053,3.0994099271297455,-0.349720771,0.1472216287914377,-0.069824705,0.012639839246940728,-0.01185719,0.050735564,-62.875,Campus
28,9.680239510767668,0.26252226390450906,-0.394969645,-0.109841308,0.07766063,-0.009425137,-105.4371558,74.64411239624023,-24.51077543,-0.022191554,0.029487301663323803,0.008197639,0.998938735,0.059411158,-0.014624349,0.044849258549149756,45,0.23260900378227234,1.3279049396514893,4.243999958,1.3987950086593628,357.5744323730469,154.29998779296875,-86.910426,40.4259554,9.680239510767668,0.26252226390450906,-0.394969645,-43.87717709,31.023379306793213,3.8090839338302613,-0.213998753,0.11727062511501961,0.19317334702292693,-0.131373675,0.094024517,-0.009377691,-56.22222222,Campus
29,10.193555118968186,0.058333761,-0.873600965,-0.053299389,-0.038166094,-0.008642303,-104.6262219,75.48798667907715,-25.43285151,-0.07970042,0.043777467,0.001423753,0.9952905212791221,0.087887031,0.004426587,0.1596806441406602,45,0.22110146284103394,1.037071704864502,4.129000186920166,1.407431960105896,358.8690490722656,154.79998779296875,-86.9104294,40.4259758,10.193555118968186,0.058333761,-0.873600965,-43.06587727,31.86713134765625,2.8879839354753494,0.3162634303268877,0.10227576968739334,-0.002869068,-0.074831755,-0.021811102,-0.008609685,-58.875,Campus
30,10.259142866412413,-0.708615263,-1.058498787,-0.048009332,5.041094026663928E-5,-5.89E-04,-102.8561237,79.26303253173828,-24.55457352,-0.062198552,0.052086742,-0.028537989,0.9958204644397625,0.10116198101958025,0.063695253,0.12143955133783008,45,0.2291167825460434,1.0470584630966187,3.9709999561309814,1.4298570156097412,3.1170265674591064,154.79998779296875,-86.9104289,40.4259847,10.259142866412413,-0.708615263,-1.058498787,-41.29638912,35.64303119659424,3.7654079282283783,0.40254154483091487,-0.076118957,-0.058699296,-0.069541699,0.016426157694563126,-5.40E-04,-59.44444444,Campus
31,9.942401686918389,-0.779366142,-0.591660241,0.04547995,0.006468754,-0.025662997,-103.0387578,78.93753692626953,-25.5156896,-0.050951251,0.040439672,-0.030000966,0.9965733092965432,0.077837256,0.064798709,0.099517062,45,0.26950836181640625,1.0470584630966187,3.921999931335449,1.4148329496383667,1.888037085533142,154.79998779296875,-86.9104287,40.4259983,9.942401686918389,-0.779366142,-0.591660241,-41.47865723,35.31704719543457,2.8057559406757355,0.048953056,-0.135072267,0.17981503600055732,0.023947583185960946,0.022844503751223526,-0.025628896,-54.125,Campus
32,9.667155919166712,-0.878611687,-0.77100657,-0.001976361,-0.02308469,-0.111596753,-102.7616959,79.28840805053711,-25.06563145,-0.025078473,0.03388761,-0.037884738,0.9968371906326813,0.066476152,0.079130523,0.047648489,45,0.2251559942960739,1.0570096969604492,3.878000020980835,1.4768455028533936,0.30225545167922974,154.79998779296875,-86.9104285,40.4260132,9.667155919166712,-0.878611687,-0.77100657,-41.20171726,35.66987133026123,3.2545939269661903,-0.186983858,-0.09366294,-0.113448437,-0.023508726,-0.006713388,-0.111573031,-50.22222222,Campus
33,9.74069019,-0.508724543,-0.647069773,-0.060973529,0.069153246,0.088737426,-102.9449396,78.58483421325684,-25.11711552,-0.037065455,0.041076492029920364,-0.027186882,0.9973804088472162,0.08075364,0.05786442,0.072484453,45,0.27641430497169495,1.0669875144958496,4.374000072479248,1.5657659769058228,355.2044982910156,154.79998779296875,-86.9104416,40.4260393,9.74069019,-0.508724543,-0.647069773,-41.38447334,34.965443267822266,3.202865929603577,-0.116850404,0.06209363,0.1446547472071879,-0.082505894,0.085512685,0.088796731,-56.375,Campus
34,9.671022461456003,-0.039307335,-1.122710057,-0.154427229,0.035730117,0.052303057,-104.6462302,75.24313247680664,-23.46194157,-0.062767216,0.062096579,8.564045575325314E-4,0.9949585783828809,0.12452209064538039,0.007302339,0.12572157744643758,45,0.37895917892456055,1.087103009223938,5.0229997634887695,1.5282536745071411,355.4135742,154.79998779296875,-86.9104433,40.4260628,9.671022461456003,-0.039307335,-1.122710057,-43.08625107,31.622765483856202,4.858893878459931,-0.167588072,0.023003165872351638,0.13145405922121214,-0.175959592,0.052091039,0.052347536,-57.33333333,Campus
35,9.633788541682716,0.11647296299054785,-1.281402979,-0.035934719,0.016507702751889897,0.022969042301942025,-104.4698182,73.45888259887695,-24.43891752,-0.094252444,0.061225147,0.009738902,0.9924866609203006,0.1250238442088215,-0.006873646,0.19034994140412043,45,0.411485493,1.0971596240997314,5.446000099182129,1.5630552768707275,359.9019775390625,154.79998779296875,-86.9104409,40.4260803,9.633788541682716,0.11647296299054785,-1.281402979,-42.90983894,29.837417430877686,3.881917921304703,-0.253616611,0.051925813,-0.039848983,-0.057467086,0.032873072,0.023023899841841167,-56.75,Campus
36,9.948688655,0.091423833,-0.790505545,0.099590342,-0.062653359,-0.005973553,-104.4184558,72.99162254333496,-25.8679035,-0.073262858,0.038771453385865226,0.018293389,0.9955107112532681,0.080450342,-0.029593713,0.1481694291951587,45,0.379678875,1.107010841369629,6.078999996185303,1.5532312393188477,2.0671048164367676,154.79998779296875,-86.9104399,40.4260957,9.948688655,0.091423833,-0.790505545,-42.85823318,29.371987342834473,2.453053963,0.019815454205263008,-0.196031767,0.002517462,0.078057976,-0.046296885,-0.005945383,-59,Campus
37,9.919350438904994,0.3414854078047267,-0.565266601,0.025902273196082275,-0.036321918,0.010866032720794184,-105.0184518,73.53696289,-28.27545143,-0.070920292,0.018695400791609876,0.019250535772208914,0.9967618951430688,0.040287608661366485,-0.035500871,0.1427826008114677,45,0.40257829427719116,1.1170378923416138,6.421999931335449,1.4759581089019775,356.6745910644531,154.79998779296875,-86.9104388,40.4261125,9.919350438904994,0.3414854078047267,-0.565266601,-43.45822906,29.917815456390382,0.043919994,0.028280309,-0.014952079,-0.182029782,0.004369908,-0.01995826,0.01092183,-56.375,Campus
38,10.06073608213258,0.3511380122395829,-0.581853743,-0.014715195,0.029196127991472344,-0.053133333,-105.4280058,73.88588295,-28.34072155,-0.058444098,0.023728584161466802,0.01446235,0.9969643024564947,0.049718921,-0.024718789,0.11805195611838287,45,0.4058365523815155,1.1270153522491455,6.321000099182129,1.7102681398391724,354.58050537109375,154.79998779296875,-86.9104389,40.4261281,10.06073608213258,0.3511380122395829,-0.581853743,-43.86875908,30.265149421691895,-0.020740001,0.1647858341920723,0.1062747206430412,-0.089620813,-0.036247558,0.045568911,-0.053093302,-54.77777778,Campus
39,10.018942962572412,0.34582675678782093,-0.786248423,0.17437465265574095,0.021056438534005174,0.005448698,-106.3269017,71.12380264282227,-25.77969751,-0.026764987,0.04504901,0.030224981188810278,0.9973093491156124,0.092115708,-0.057184408,0.05688488,45,0.4121434688568115,1.1371570825576782,6.204999923706055,1.5498236417770386,354.08392333984375,154.79998779296875,-86.9104389,40.4261449,10.018942962572412,0.34582675678782093,-0.786248423,-44.76692287,27.50392349243164,2.5401619585230946,0.15498485842954765,-0.221001185,0.12408825841922204,0.1528422875076677,0.037430703,0.005502073,-53.5,Campus
40,9.940656421253982,0.18459581287161816,-0.615588472,0.034235616,-0.118513264,-0.035697501,-105.2808743,72.24803245544433,-24.77588154,0.005690768,0.032964499,0.012234717827825469,0.9988823897630266,0.065967545,-0.02450133,-0.010495963,45,0.44319477677345276,1.1470690965652466,6.356999874,1.594090461730957,355.0574951171875,154.79998779296875,-86.9104387,40.4261599,9.940656421253982,0.18459581287161816,-0.615588472,-43.72040707,28.62778734207153,3.544221935272217,0.031939548196144474,-0.058824156,0.039037442,0.012703250731947353,-0.102161238,-0.035654505,-52,Campus
41,9.625184211916137,0.20568982242308195,-0.450071354,-0.045648973,0.060411608,0.020002283,-104.8200803,73.29052261,-26.30576145,-0.002599909,0.019257596030761263,0.004133167,0.999120151,0.039231346170638365,-0.007600654,0.005538796,45,0.2823987305164337,1.1470690965652466,6.330999851226807,1.4360630512237549,354.6640625,154.79998779296875,-86.9104387,40.4261726,9.625184211916137,0.20568982242308195,-0.450071354,-43.26034527,29.669911308288576,2.014219961166382,-0.301387537,0.1308971856838291,-0.060467039,-0.067181336,0.076778457,0.020045278189269808,-49.375,Campus
42,9.813371174610579,0.094562515,-0.66394501,0.023394562195516326,0.005364189,-0.034167413,-104.1865341,73.22171424865722,-26.16253353,-0.037372518,0.034934320297200706,0.00326865,0.9978446393337065,0.070279023,-0.00392414,0.074893539,45,0.4319281280040741,1.1670314073562622,6.274000168,1.5914475917816162,0.045816217,154.79998779296875,-86.9104328,40.4261931,9.813371174610579,0.094562515,-0.66394501,-42.62692112,29.601713409423827,2.158423961624503,-0.077954075,0.039518257,0.025108199096420435,0.001862196,0.021726591973701147,-0.0341259,-49.77777778,Campus
43,10.073536470098404,0.3068940220818882,-0.728376376,-0.097671807,-0.046030009,0.098119566,-104.3102419,72.46226486206055,-25.64866947,-0.034895252,0.037907126875033656,0.016929344,0.9979666240006975,0.077344226,-0.030813793,0.071181213,45,0.42032334208488464,1.1770941019058228,6.2729997634887695,1.5734121799468994,2.1679763793945312,154.79998779296875,-86.9104312,40.4262109,10.073536470098404,0.3068940220818882,-0.728376376,-42.75062927,28.841653480529786,2.672287946231663,0.11565316302105061,0.005015106,0.043438092,-0.119204174,-0.029673536,0.098196662,-48.55555556,Campus
44,10.092159317535105,0.8088176167995027,-0.387050678,0.043700783054606576,-0.004777062,-0.035804246,-105.4204416,70.31433235168457,-26.72824757,-0.02829802,0.025838470738042074,0.036019227566938955,0.9978716327148733,0.054499919,-0.070367917,0.058967837,45,0.4232821762561798,1.1870518922805786,6.3480000495910645,1.5963629484176636,1.5369393825531006,154.79998779296875,-86.9104294,40.4262282,10.092159317535105,0.8088176167995027,-0.387050678,-43.86058506,26.695429401397703,1.5925879609398543,0.17905096405918158,0.10378850186334072,0.13946781896995109,0.022168418419664923,0.011597201390897186,-0.03576125,-48.125,Campus
45,9.976447147073097,1.2220093021892662,-0.303229288,-0.037488528,0.060565799,0.092174184,-106.3178738,68.30072296142578,-28.0452375,-0.047863116,0.015993643,0.058075925,0.9960088052795929,0.038369392900438344,-0.113163788,0.098676642,45,0.41262534260749817,1.1970418691635132,6.245999813079834,1.6924757957458496,1.0098131895065308,154.79998779296875,-86.910428,40.4262463,9.976447147073097,1.2220093021892662,-0.303229288,-44.75777328,24.680355529785157,0.27449999991804364,0.11371467182937178,0.11873463519568582,0.068693741,-0.059020893,0.076953414,0.092215697,-46.22222222,Campus
46,9.934717942210076,0.5825622966919927,-0.405586344,0.006551782,0.014971689256676699,-0.097493893,-105.9565099,70.78488686,-26.72946737,-0.00606232,0.020698218,0.034177577,0.9984589554731128,0.042929251,-0.06747236,0.014168891489496726,45,0.3265569806098938,1.1970418691635132,6.208000183105469,1.4852901697158813,1.5582492351531982,154.79998779296875,-86.9104294,40.4262641,9.934717942210076,0.5825622966919927,-0.405586344,-44.39628727,27.164031429290773,1.5922219705581666,0.050721368,-0.076155076,0.027247524919729788,-0.014980584,0.031341504,-0.097436068,-39.25,Campus
47,9.796747274769162,0.28652599089534825,-1.115816178,-0.007142214,0.037790302643910624,-0.053190699,-106.0938821,73.08385437,-26.47229145,-0.044906789,0.048550447484908194,0.017857158,0.997364206,0.098690021,-0.030936744,0.091466915,45,0.33928343653678894,1.207028865814209,6.269999980926514,1.4743387699127197,357.95404052734375,154.79998779296875,-86.9104282,40.4262796,9.796747274769162,0.28652599089534825,-1.115816178,-44.53426914,29.464829406738282,1.847567957341671,-0.092770246,-0.035871058,-0.115082602,-0.02867458,0.054170110173380144,-0.053155459,-39.77777778,Campus
48,9.891365454034897,0.2888752558603159,-0.563948225,-0.069169555,-0.010589008,0.041067617,-105.8112078,72.01379287719726,-26.87696545,-0.038040712,0.038820659090737696,0.017448524239047473,0.9980282957114063,0.07935498,-0.031734464,0.077390466,45,0.33928343653678894,1.207028865814209,6.269999980926514,1.4743387699127197,357.95404052734375,154.79998779296875,-86.9104282,40.4262796,9.891365454034897,0.2888752558603159,-0.563948225,-44.25110733,28.393547401428222,1.444479972049594,-0.030155594,-0.027348973,0.2248535936029212,-0.09070192,0.00578081,0.041119509,-49.125,Campus
49,9.644576572677463,0.3896816217519108,-0.629765368,0.005508002,0.055868802198832765,-0.144511339,-105.2801419,70.96788650512696,-26.49449553,-0.026719665,0.036522404,0.022394768283951087,0.997524813,0.074774441,-0.042034879,0.055283575,45,0.2939801812171936,1.2271543741226196,6.2230000495910645,1.5330270528793335,353.3522644042969,154.79998779296875,-86.9104282,40.4263094,9.644576572677463,0.3896816217519108,-0.629765368,-43.72101719,27.347763385772705,1.8248759603500366,-0.228152442,-0.027168077,0.10972501988549835,-0.016024362,0.072237137,-0.144490582,-51.55555556,Campus
50,9.820292213588084,-0.141281079,-0.955256039,-0.032744083,-0.019188314,0.16862201167143953,-103.6071561,75.61925857543946,-25.41796743,-0.02237565,0.053183024,-0.006971285,0.997550688,0.10597806199661737,0.016734166,0.043640618,45,0.31393444538116455,1.237113356590271,6.336999893188477,1.4603098630905151,354.3892517089844,154.79998779296875,-86.9104354,40.4263237,9.820292213588084,-0.141281079,-0.955256039,-42.04754311,31.999379348754882,2.9021359503269197,-0.082849137,0.025722498,0.097691736,-0.054276446,-0.002822944,0.16869466380189055,-58,Campus
51,9.934003608,0.685076157,-0.880686503,-0.036314277,-0.01501172,0.033357894671990455,-105.6422383,70.68362663269043,-27.73108757,-0.054739364,0.034448249,0.037853021,0.9966726499853782,0.07362441,-0.071361652,0.11251554685165581,45,0.31393444538116455,1.237113356590271,6.336999893188477,1.4603098630905151,354.3892517089844,154.79998779296875,-86.9104354,40.4263237,9.934003608,0.685076157,-0.880686503,-44.08250313,27.06374752044678,0.5888939841836691,0.037915267,-0.02451994,-0.151299108,-0.057846642,0.001353649,0.033406821,-64.55555556,Campus
52,9.993042817482582,0.9976977567331722,-0.481368609,0.071467648,6.671882894577332E-4,0.034923562,-106.2155159,68.64976470947266,-28.89020945,-0.029432681,0.017931129883153808,0.054519375,0.9973738019906201,0.039365471,-0.107155046,0.061201089821886996,45,0.28698185086250305,1.2571089267730713,6.294000148773193,1.448011040687561,0.9135698676109314,154.79998779296875,-86.9104328,40.4263568,9.993042817482582,0.9976977567331722,-0.481368609,-44.65517128,25.03037347793579,-0.570227986,0.080917108,-0.069542841,-0.084721492,0.04993528,0.017026625781600337,0.034960627,-70.22222222,Campus
53,9.934119724532932,0.6717530123310761,-0.147710334,0.024841616731543927,-0.047654982,-0.104242864,-105.0578578,70.94604858398438,-29.99894547,-0.033607308,0.012974454082652602,0.032371571,0.9982180601184808,0.028553789083674116,-0.063317962,0.068488173,45,0.2464301884174347,1.2670776844024658,6.355000019073486,1.4684395790100098,357.6795654296875,154.79998779296875,-86.9104341,40.4263706,9.934119724532932,0.6717530123310761,-0.147710334,-43.49800121,27.326169414520265,-1.67981797,0.021718321494685795,0.048158817,0.11602579675687169,0.003309251,-0.031299991,-0.104205796,-68.5,Campus
54,10.194580221639097,0.4731313100771852,-0.279893457,-0.005368637,0.005470939,-0.051970943,-104.6224397,71.94852249145508,-30.35384331,-0.042434265,0.019685133095778122,0.026135001958147802,0.9978720013377735,0.041850619,-0.049548745,0.086173702,45,0.27413928508758545,1.277003288269043,6.395999908447266,1.2485696077346802,342.2039489746094,154.79998779296875,-86.9104433,40.426386,10.194580221639097,0.4731313100771852,-0.279893457,-43.06197323,28.328765277862548,-2.033739952,0.25114496471812425,0.020748493451516605,0.13246411475741748,-0.026901002,0.021849649298248938,-0.051933878,-62.66666667,Campus
55,9.974591542,-0.085447578,-0.150053792,0.060436812120950915,-0.043562898,6.093648720071515E-4,-103.7657557,74.33093872070313,-31.81967333,-0.039084981,0.004573047,7.410220239109143E-4,0.9990303637911973,0.00916026,-0.001077341,0.078177931,45,0.27413928508758545,1.277003288269043,6.395999908447266,1.2485696077346802,342.2039489746094,154.79998779296875,-86.9104433,40.426386,9.974591542,-0.085447578,-0.150053792,-42.20492317,30.71020544052124,-3.498837914,0.08718842,-0.125005416,-0.037204546,0.038904446,-0.027201976,6.44948410923656E-4,-61,Campus
56,9.698272802297351,0.4296162018859849,-0.094072198,-0.098430919,-0.012273286,0.02390459,-104.9650158,71.26093070983887,-30.3698254,-0.051823463,0.006499087,0.021807565,0.9976731052676451,0.015384061780229247,-0.042579785,0.10418532679345711,45,0.2621206045150757,1.2969707250595093,6.413000106811523,1.4561727046966553,343.16046142578125,154.79998779296875,-86.9104558,40.4264047,9.698272802297351,0.4296162018859849,-0.094072198,-43.40528103,27.640929431915282,-2.049599966,-0.232150013,-1.02E-04,0.054691195487976074,-0.119963286,0.004077258,0.023947586859259934,-61.55555556,Campus
57,9.782477503841363,0.43342903874886846,-0.511007027,0.10161209299873847,0.060039237,0.021203448458646353,-104.7304102,71.68829605102539,-29.35673748,-0.059928243,0.018678639,0.020705761703608844,0.9973194450139999,0.039822981,-0.038994669,0.1207244041411636,45,0.2666669487953186,1.3069676160812378,6.441999912261963,1.4900906085968018,353.9246520996094,154.79998779296875,-86.9104586,40.4264237,9.782477503841363,0.43342903874886846,-0.511007027,-43.17018726,28.06768548965454,-1.037365982,-0.184663218,0.046357705,-0.117999933,0.080079725,0.076401427,0.021253373509702776,-62.75,Campus
58,9.600593955771437,0.8462722573827193,-0.922046905,-0.043253025,-0.011217648,0.017321672050951465,-105.5130399,70.23234848022462,-26.69042749,-0.047205838,0.047301410742610406,0.043096318,0.9962309350087805,0.099008677,-0.080699123,0.098777305,45,0.3239017724990845,1.3169898986816406,6.566999912261963,1.4104734659194946,4.990748882293701,154.79998779296875,-86.9104557,40.4264447,9.600593955771437,0.8462722573827193,-0.922046905,-43.95269527,26.611859531402587,1.6291879730671643,-0.25299669,0.045460074,0.056804236,-0.064785393,0.005150689,0.017372081,-65.88888889,Campus
59,9.852938008539885,0.2981706752613621,-0.916181006,0.12904148281481823,0.043014321,-0.065634946,-103.9391178,73.41203460693359,-27.4745215,-0.02227484,0.040255112,0.006977789,0.9981804825727222,0.081487738,-0.011986859,0.045034768,45,0.331814706,1.3269776105880737,6.586999893188477,1.4646862745285034,359.8808898925781,154.79998779296875,-86.9104546,40.4264636,9.852938008539885,0.2981706752613621,-0.916181006,-42.37938328,29.791545352935792,0.8452159677632153,-0.025664061,0.1807291886036836,-0.109368264,0.10750911603636533,0.059388587617505234,-0.06558157,-59.25,Campus
60,10.06853018455135,0.1894017877509293,-0.680287605,-0.094089753,-0.076797733,0.016016949,-102.641282,73.78389068603515,-25.99514946,-0.005506331,0.035865269,0.010750089,0.9988641918284221,0.072168481,-0.02074036,0.011929541090458125,45,0.468021035,1.3470137119293213,6.745999813079834,1.6348639726638794,356.2047424316406,154.79998779296875,-86.9104503,40.4264827,10.06853018455135,0.1894017877509293,-0.680287605,-41.08130337,30.16425542831421,2.324221957921982,0.17210848817547547,-0.016211526,0.035139520914809215,-0.11562212,-0.060439779,0.016079221,-59.44444444,Campus
61,10.049474734704472,0.6891938912132936,-0.573873788,-0.041900859,0.005674061,0.071360899,-106.5504055,73.02883277893066,-28.94608547,-0.032508935,0.026277909692810866,0.027604064,0.9982951520716102,0.054722729627296185,-0.053013445,0.066677065,45,0.47090378403663635,1.3570427894592285,6.769000053405762,1.6718884706497192,351.4718933105469,154.79998779296875,-86.9104523,40.4265004,10.049474734704472,0.6891938912132936,-0.573873788,-44.99030502,29.409075508117677,-0.625249986,0.148288495,0.16382055469218967,-0.03174368,-0.063433225,0.022037943345901458,0.071423169,-61.875,Campus
62,9.923285695222708,0.36547778059656805,-0.457742368,-0.005107692,0.051314134,-0.04595736,-106.5256403,69.86183464050293,-27.60676952,-0.025119765,0.025791276291519113,0.030647628,0.9986023110093423,0.053381249,-0.059671947,0.051935997,45,0.297985315,1.3570427894592285,6.908999919891357,1.4807720184326172,351.75323486328125,154.79998779296875,-86.9104591,40.4265165,9.923285695222708,0.36547778059656805,-0.457742368,-44.96529503,26.241955432891846,0.7134559844247996,0.032990284,-0.211893484,0.065513453,-0.026640058,0.067680988,-0.045918811,-68,Campus
63,9.821796472790172,-0.097731122,-0.671729781,0.024473921,0.030130189005963648,-0.051982805,-104.8542403,75.00206062316894,-25.65745363,-0.010265874,0.038109726,-0.004143244,0.9985315574025645,0.076657107,0.009110659,0.020381485410396336,45,0.297985315,1.3570427894592285,6.908999919891357,1.4807720184326172,351.75323486328125,154.79998779296875,-86.9104591,40.4265165,9.821796472790172,-0.097731122,-0.671729781,-43.29462715,31.382181491851806,2.6625279468297958,-0.06160512,-0.012940938,0.09775896,0.002941557,0.046492592,-0.051926465,-72.11111111,Campus
64,9.886524700424046,-0.060476843,-1.282378706,-0.038129027,0.052820497,-0.043442804,-106.0962003,74.67302642822266,-22.64942163,0.001857297,0.065552252,-8.76E-04,0.9971847192755023,0.1316015646584983,0.002075367,-0.003824028,45,0.3225875496864319,1.3770467042922974,7.322000026702881,1.3872356414794922,356.77752685546875,154.79998779296875,-86.9104507,40.4265401,9.886524700424046,-0.060476843,-1.282378706,-44.53597717,31.05363546,5.671291885375976,0.057562907,-0.038801886,0.010707707659712115,-0.059661391,0.069200692,-0.043393877,-73.5,Campus
65,9.603605325939586,-0.276400056,-1.316775532,-0.024109193,-0.067747706,-0.053180779,-105.5601319,74.67083030700684,-21.38452559,0.00584268,0.074718592,-0.018042133,0.9961697916382725,0.15055063280087072,0.035844435,-0.013996171,45,0.3225875496864319,1.3770467042922974,7.322000026702881,1.3872356414794922,356.77752685546875,154.79998779296875,-86.9104507,40.4265401,9.603605325939586,-0.276400056,-1.316775532,-44.00027546,31.05058542251587,6.934845876693726,-0.200668372,0.069731605,0.1830554471432584,-0.045641556,-0.051388267,-0.053146678,-74.55555556,Campus
66,9.736764167118999,-0.038110927,-0.834854076,-0.062491752,0.012635049658818441,0.10279284414690602,-105.0263821,74.86639663696289,-24.9400935,-0.013221552,0.041532073,-0.001555021,0.9982895145138491,0.083305751,0.004830518,0.026031616,45,0.24379944801330566,1.3972417116165161,6.764999866485596,1.4387997388839722,354.16986083984375,154.79998779296875,-86.910448,40.4265695,9.736764167118999,-0.038110927,-0.834854076,-43.46615898,31.246761398315428,3.3808639430999756,-0.199099823,0.019774315697909557,-0.013454721,-0.084024117,0.028997452,0.10287439024518923,-73.625,Campus
67,9.921098602628245,-0.112930197,-0.687884243,0.029731815,0.02910041,-0.025726067,-105.8184058,71.98341476,-25.50373352,-0.009424805,0.036024311,0.002999986,0.9986267869289105,0.072651464,-0.004408288,0.019261786924639288,45,0.2627808153629303,3.3046367168426514,5.901000022888184,1.4364073276519775,357.5193786621094,160.6999969482422,-86.9104486,40.4265896,9.921098602628245,-0.112930197,-0.687884243,-44.25793922,28.362193412780762,2.8162479388713835,0.055112256,-0.159052194,0.031080308871773574,0.008199452,0.045465539885649026,-0.025673205,-75.66666667,Campus
68,10.126169908393933,-0.158791663,-0.49117912,0.048955254,-0.091778318,-0.063179694,-102.428026,75.63243461608887,-26.27001545,-0.002583105,0.023768935430550822,-0.016139346,0.9990455473510964,0.047703942,0.03300386,0.004438442,45,0.2627808153629303,3.3046367168426514,5.901000022888184,1.4364073276519775,357.5193786621094,160.6999969482422,-86.9104486,40.4265896,10.126169908393933,-0.158791663,-0.49117912,-40.86816917,32.01316547393799,2.0500879526138305,0.22505845838380092,0.1689899971762907,-0.018651934,0.027422891007465065,-0.07541443,-0.063130768,-70.25,Campus
69,10.16232066478544,-0.07457534,-0.52410076,-0.021013441,0.010867744934003692,-0.012176912,-104.9783139,74.18222045898438,-27.34434752,-0.018205271,0.024478470900964028,9.870245596122684E-5,0.9989524414238421,0.049327333161643554,0.001181491,0.036452303,45,0.30511754751205444,3.3246545791625977,6.038000106811523,1.4102064371109009,358.4952697753906,160.6999969482422,-86.9104511,40.4266132,10.16232066478544,-0.07457534,-0.52410076,-43.41821327,30.56234163284302,0.9752679801173508,0.251761154,-0.061595876,-0.03515813,-0.042545809,0.027225701414157175,-0.01211909,-66.25,Campus
70,9.829793837,0.24146600762942752,-0.622191963,-0.04499661,-0.029077516,0.05252545,-103.647416,71.76979240417481,-27.85150146,-0.055387393,0.027101595,0.018188887521018753,0.9970806345198918,0.056827941005235735,-0.032435545,0.11206279769178154,45,0.2636699676513672,3.334784984588623,5.973999977111816,1.4548300504684448,359.43658447265625,160.6999969482422,-86.9104523,40.4266287,9.829793837,0.24146600762942752,-0.622191963,-42.08768131,28.151011390686037,0.46872399136424064,-0.092081084,-0.080096963,-0.05783888,-0.066528974,-0.012715111,0.052584755,-71.22222222,Campus
71,9.928448408552743,-0.004608507,-0.365343941,0.11865114710221375,6.909107481970371E-4,-0.066358473,-103.7674638,75.29498268127442,-27.47805954,-0.024793623,0.023705627,0.006206127,0.998953627,0.048063745067197176,-0.011010603,0.049760487,45,0.3106584846973419,3.3446340560913086,6.954999923706055,1.444644808769226,2.0764174461364746,160.6999969482422,-86.9104476,40.4266508,9.928448408552743,-0.004608507,-0.365343941,-42.20797314,31.67485948562622,0.8408239858038723,0.013821829,-0.113005757,0.11098381515266825,0.097118782,0.017054796,-0.066327338,-74.375,Campus
72,9.750637214917402,0.3565650903619826,-0.755102351,0.16823059909816523,0.021613910821384016,-0.006305665,-106.816244,73.49048042297363,-24.68511345,0.024478170649460472,0.031924755,0.014652401870989706,0.9984570093525266,0.063756127,-0.031013878,-0.048134655,45,0.32331061363220215,3.354607343673706,7.383999824523926,1.3927013874053955,352.8714599609375,160.6999969482422,-86.9104425,40.4266673,9.750637214917402,0.3565650903619826,-0.755102351,-45.25602093,29.871455421447752,3.6355999201536178,-0.165265273,0.06942138,-0.131818761,0.14669823049775604,0.037986693180446486,-0.006255255,-73.33333333,Campus
73,9.742632898,-0.095680964,-0.494933873,-0.096995724,-0.026637091,0.017689365,-106.2651701,74.21735656738281,-22.85328362,0.060590093,0.032700784522497535,-0.00399162,0.9965188879411198,0.065797607,0.004817842,-0.121450647,45,0.32331061363220215,3.354607343673706,7.383999824523926,1.3927013874053955,352.8714599609375,160.6999969482422,-86.9104425,40.4266673,9.742632898,-0.095680964,-0.494933873,-44.70482521,30.597233409881593,5.4663318920135495,-0.104282509,-0.072092105,0.1661663257959977,-0.118528092,-0.010279135,0.017742739357415913,-74.25,Campus
74,9.601139901911171,0.034086109102857344,-0.657529659,-0.036504056,0.011852215536987608,-0.010492637,-106.3334897,75.10185631,-25.65513546,0.012084028597704126,0.024840914,-0.008226772,0.9987633494497503,0.050095524,0.016340778108112044,-0.024885052,45,0.26928481459617615,3.374622106552124,6.631999969482422,1.4331411123275757,355.0698242,160.6999969482422,-86.9104488,40.4267059,9.601139901911171,0.034086109102857344,-0.657529659,-44.77290134,31.481489372253417,2.664845944643021,-0.281809807,0.1907761091167487,-0.166409303,-0.05803642,0.028219066831527403,-0.010434814,-78.77777778,Campus
75,9.881346929420545,-0.272288116,-0.367719342,-0.126802699,-0.046729815,0.020690227686924842,-105.0043001,74.33313446044922,-25.69417553,-0.008082148,0.031297146,-0.01615047,0.9985041502609994,0.062671007,0.033157994,0.015382162609772793,45,0.26928481459617615,3.374622106552124,6.631999969482422,1.4331411123275757,355.0698242,160.6999969482422,-86.9104488,40.4267059,9.881346929420545,-0.272288116,-0.367719342,-43.44456539,30.71203546524048,2.625073930695653,-0.073081637,0.063895628,0.24813946445011398,-0.148335065,-0.030358515,0.020755463668588294,-79.5,Campus
76,10.13290114078707,-0.575732291,-0.898278396,-0.109129642,0.076216538,-0.002094969,-100.5957078,76.31685470581054,-28.03047548,-0.087975643,0.040189555,-0.026395997,0.9937891138410105,0.074921235,0.060646678,0.17372598390556077,45,0.3275311589241028,3.394726037979126,6.289999961853027,1.4608603715896606,359.2276916503906,160.6999969482422,-86.9104451,40.4267355,10.13290114078707,-0.575732291,-0.898278396,-39.03560726,32.69599939346313,0.2897499909065664,0.24666615828727056,0.041922732,-0.149239444,-0.13066201,0.092595253,-0.002016389,-79.88888889,Campus
77,10.007010756187068,-0.295621042,-0.947868478,0.007177456,-0.037117779,0.020404647301452663,-103.0663304,78.95339599609375,-26.94308943,-0.072469587,0.047327579,-0.013824662,0.9952732124007665,0.092953459,0.034898743,0.1436049951813542,45,0.43326663970947266,3.4146673679351807,6.2170000076293945,1.6000651121139526,3.1820383071899414,160.6999969482422,-86.9104441,40.4267572,10.007010756187068,-0.295621042,-0.947868478,-41.50647297,35.334005203247074,1.3756719688698649,0.15142512321472168,0.049104850739240646,-0.024294831,-0.014354913,-0.02075706,0.020470723205317672,-80.875,Campus
78,9.852270093936365,0.018953828737863058,-1.131227234,-0.010694273,-0.057796233,0.019302478,-106.282738,74.09194061279297,-24.32862949,-0.041266821,0.056120588,0.015259069217172863,0.9965606951019139,0.11375720308442573,-0.025151454,0.083817474,45,0.39812663197517395,3.424664021,6.143000126,1.5923547744750977,358.9978027,160.6999969482422,-86.9104462,40.4267706,9.852270093936365,0.018953828737863058,-1.131227234,-44.72300312,30.471329460144045,3.9912299307435752,-0.018497249,-0.230304228,-0.00291979,-0.032226644,-0.041419001,0.019349923278250306,-83.22222222,Campus
79,9.872693326,0.49151887165979274,-0.858169586,0.164802734,0.029897414278962368,0.014581755242192919,-106.498312,73.66811264038085,-27.34642151,-0.02564833,0.026303251000410578,0.021519491189889592,0.9978956389195711,0.053006432,-0.041031509,0.052461297486375257,45,0.28689247369766235,3.424664021,6.146999835968018,1.4609087705612183,355.0686035,160.6999969482422,-86.9104476,40.4267829,9.872693326,0.49151887165979274,-0.858169586,-44.93808922,30.04847749710083,0.9746579854190349,-0.04947623,0.084003202,-0.331884176,0.14327037292396994,0.046265749694797596,0.014651439437479938,-73.55555556,Campus
80,10.059925852470027,-0.294578539,-0.790081582,0.46561238931229754,-0.045140428,-0.14205609,-108.3901656,73.16681419372559,-20.58884167,0.15811421859611585,0.025167773226818558,-0.006360817,0.981312736,0.05445708,0.007884274,-0.319272493,45,0.3040200471878052,3.4346909523010254,6.267000198364258,1.5387301445007324,354.5045166015625,160.6999969482422,-86.9104481,40.4267977,10.059925852470027,-0.294578539,-0.790081582,-46.83079704,29.54644744873047,7.7312618553638455,0.13275489992308384,-0.215020061,-0.249895287,0.4440800289632481,-0.028779506,-0.142017541,-79.25,Campus
81,9.867022789441622,-0.310020083,-0.418335578,0.4252134449599148,-0.010838092,-0.054224557,-106.43414,67.42073654174804,-16.50159764,0.3469727784395218,0.002882167,-0.012253475,0.9331573438875883,0.015806877737507694,0.023114301,-0.711771115,45,0.3116742670536041,3.4446158409118652,6.355000019073486,1.494814395904541,334.9658508300781,160.6999969482422,-86.9104564,40.426813,9.867022789441622,-0.310020083,-0.418335578,-44.87355099,23.800979557037355,11.819359798431396,-0.076715826,-0.066876008,-0.268882455,0.4036810778587767,0.005528761,-0.054194904,-77.33333333,Campus
82,9.783671043,-0.097539465,-0.198955652,0.20412232251204912,-0.028139003,0.098499122,-105.8947778,60.24457504272461,-11.68393981,0.49947390076026177,0.013877168782148622,-0.003896067,0.8645629275192335,0.027341744712032875,-0.006690145,-1.047737539,45,0.3116742670536041,3.4446158409118652,6.355000019073486,1.494814395904541,334.9658508300781,160.6999969482422,-86.9104564,40.426813,9.783671043,-0.097539465,-0.198955652,-44.33455524,16.62371967315674,16.63652974128723,-0.126499829,-0.185468217,0.081218341,0.18258995575902676,-0.011784015,0.098558427,-67.375,Campus
83,9.65719986,0.032297301,-0.067768572,-0.116056532,0.098118083,-0.019969665,-105.8783076,58.045768928527835,-10.56056376,0.5365951619680646,0.014666618166143274,-0.006494891,0.8431453374983038,0.032029238,-0.004341635,-1.133499392,45,0.3088560700416565,3.464629888534546,6.550000190734863,1.5822423696517944,301.5857238769531,160.6999969482422,-86.9104849,40.4268355,9.65719986,0.032297301,-0.067768572,-44.31820709,14.426865663528442,17.759173812866212,-0.328066312,-0.014961639,0.2560325607802104,-0.137588897,0.11448790106325618,-0.019934082,-64.11111111,Campus
84,10.029475466718951,0.059942528,-0.570484925,-0.222367676,0.11897288255610512,0.067517897,-104.1772621,60.54628082275391,-8.447645812,0.47756591149904193,0.051446310976899945,-0.02234879,0.8753166673252883,0.11286584367451158,-0.008860968,-0.998147241,45,0.3197523057460785,3.4746451377868652,6.576000213623047,1.514138102531433,296.3376465,160.6999969482422,-86.9105073,40.4268401,10.029475466718951,0.059942528,-0.570484925,-42.61752728,16.926889657974243,19.872091598510742,0.11606682620002227,-0.01718855,0.5703874198557104,-0.243900041,0.13535455980980135,0.067575719,-51.375,Campus
85,10.075821871896393,-0.02211328,-0.786805963,-0.03017022,-0.068791483,-0.070248919,-103.4417239,64.00522468566895,-10.43575782,0.3923282927101098,0.045368832,-0.012557238,0.9178812347569512,0.093620652,-0.012334787,-0.807482341,45,0.2863213121891022,3.484814167022705,6.613999843597412,1.516013264656067,294.61309814453125,160.6999969482422,-86.9105253,40.4268383,10.075821871896393,-0.02211328,-0.786805963,-41.88150127,20.385467529296875,17.884955625534058,0.1629226601239547,-0.139827596,0.1148966516105874,-0.051702588,-0.052426113,-0.070202956,-40.66666667,Campus
86,10.250259797549942,-0.473775981,-0.552675243,-0.284925005,-0.002325918,-0.019782054,-101.4081058,67.65814903259277,-10.71843182,0.3522911093269403,0.040262941,-0.033748552,0.931354491,0.09882802,0.035783865,-0.725000674,45,0.2863213121891022,3.484814167022705,6.613999843597412,1.516013264656067,294.61309814453125,160.6999969482422,-86.9105253,40.4268383,10.250259797549942,-0.473775981,-0.552675243,-39.84763943,24.036927528381348,17.601305646896364,0.38530319929122925,-0.117298242,0.43063885976488775,-0.306457372,0.014042144712920372,-0.019736535,-51.375,Campus
87,9.787745202629312,-0.253270403,-0.994540139,-0.071340139,0.009411794,0.049192479,-100.7769998,70.75463074,-15.25634374,0.2252452638253425,0.064731997,-0.017924474,0.9702322471489027,0.1362985032927064,0.008262865,-0.455430141,45,0.3006015717983246,3.504612684249878,6.873000144958496,1.506667971611023,298.2132873535156,160.6999969482422,-86.9105622,40.4268524,9.787745202629312,-0.253270403,-0.994540139,-39.21689896,27.13499551773071,13.063515748977661,-0.047026764,-0.170349791,0.35359553660003884,-0.092872506,0.025790504916815213,0.049245854,-40.77777778,Campus
88,9.763012594389684,-0.096732177,-0.827719168,-0.213970011,-0.050762594,-0.010919636,-101.9338041,73.93187737,-18.97173157,0.13511415303332133,0.053024263292985055,-0.004015465,0.9872059515379008,0.10791718460691785,-0.005045403,-0.271271241,45,0.3006015717983246,3.504612684249878,6.873000144958496,1.506667971611023,298.2132873535156,160.6999969482422,-86.9105622,40.4268524,9.763012594389684,-0.096732177,-0.827719168,-40.37419125,30.311143341064454,9.34751781,-0.122454569,-0.146265933,0.24287902961656885,-0.235502375,-0.034397224,-0.010875157,-44.88888889,Campus
89,9.819380408351861,0.097873413,-0.779438751,-0.106318559,-0.012237704,0.023999478,-103.2504282,74.29372848510742,-22.93648756,0.060584557550118386,0.036038319,0.004583074,0.9966952818111309,0.072214807,-0.013024249,-0.120746663,45,0.26014071702957153,3.5246150493621826,7.085000038146973,1.430402398109436,336.90850830078125,160.6999969482422,-86.9105744,40.4268765,9.819380408351861,0.097873413,-0.779438751,-41.69044922,30.67372745513916,5.383249903,-0.087700973,-0.031333782,-0.063382958,-0.127850924,0.00411877,0.024055817790636883,-53.625,Campus
90,9.722311404144879,-0.239421651,-0.911244356,-0.025200416,-8.89E-06,0.007239726,-102.384472,77.33897041,-24.99938553,0.012052974720610966,0.039081079,-0.012008423,0.9981535117603043,0.078727383,0.023832881446245117,-0.024894755,45,0.2850700318813324,3.5346391201019287,7.0980000495910645,1.464598536491394,347.5675048828125,160.6999969482422,-86.9105801,40.4268954,9.722311404144879,-0.239421651,-0.911244356,-40.82437134,33.718237228393555,3.3209619271755217,-0.191384436,-0.001702792,-0.129167633,-0.046732782,0.016362403,0.007291618,-68.77777778,Campus
91,9.799661361254179,-0.018538626,-0.636617365,0.10808289682185188,-0.013411952,-0.021653943,-103.8431039,76.57695831298828,-24.52395153,0.029265710217392216,0.036679295,0.0017387,0.9975473336803103,0.074857147,-0.004006308,-0.057827537,45,0.24328993260860443,3.5546376705169678,6.988999843597412,1.4415653944015503,350.6614685058594,160.6999969482422,-86.9105893,40.4269277,9.799661361254179,-0.018538626,-0.636617365,-42.2828812,32.95744524002075,3.7960299253463745,-0.129482473,-0.063878158,0.097497349,0.086550535,0.002944521,-0.021605015,-73.875,Campus
92,10.132912788576293,-0.344003101,-0.700986686,-0.16713048,0.015517300700099722,0.014214058619137238,-103.805284,78.36047630310058,-25.41613752,0.019679451,0.030143364219591746,-0.023240057,0.9982004732761568,0.061372775,0.046064927,-0.040704787,45,0.24328993260860443,3.5546376705169678,6.988999843597412,1.4415653944015503,350.6614685058594,160.6999969482422,-86.9105893,40.4269277,10.132912788576293,-0.344003101,-0.700986686,-42.24591522,34.73986549377442,2.9031119346618652,0.20672861117761113,0.11247476230113251,-0.073414176,-0.188662844,0.031882669,0.014255572675537426,-71.55555556,Campus
93,10.039009029425463,-0.142277116,-0.451924051,0.008117449,-0.003365591,0.062571814,-103.7828358,76.17923904418946,-26.33369953,0.006151447,0.026200336765823434,-0.004532444,0.9991467143725423,0.052704038,0.009056857,-0.0123952,45,0.398173451,3.5747315883636475,6.889999866485596,1.5431112051010132,355.5768127441406,160.6999969482422,-86.9105952,40.4269575,10.039009029425463,-0.142277116,-0.451924051,-42.22261333,32.559359283447264,1.9871359437704086,0.097694948,-0.061716053,0.06196763,-0.013414917,0.012993848299408712,0.06262667,-69.25,Campus
94,10.044439292648464,0.20979305400368442,-0.857675912,-0.035697499,0.015968022636336825,-0.001703552,-104.279376,73.79255287,-24.9010536,-0.002112679,0.044161376299209965,0.013405433,0.998364049,0.088799977,-0.026110823,0.005586778,45,0.398173451,3.5747315883636475,6.889999866485596,1.5431112051010132,355.5768127441406,160.6999969482422,-86.9105952,40.4269575,10.044439292648464,0.20979305400368442,-0.857675912,-42.71951931,30.171819496154786,3.4194159281253813,0.15682110740143118,-0.026499722,0.010151128,-0.057229864,0.032330426,-0.00165759,-47.66666667,Campus
95,9.903994504687855,0.1395939052900643,-0.77334344,-0.081303473,0.014343049657503956,0.012245115772617565,-104.055628,73.93675636291503,-27.04691151,-0.027144897,0.034283688,0.016920109,0.9983007109280929,0.069785233,-0.031326136,0.055468837,45,0.3193575143814087,3.5847010612487793,7.015999794006348,1.4236057996749878,358.4528809,160.6999969482422,-86.9105959,40.4269872,9.903994504687855,0.1395939052900643,-0.77334344,-42.4952832,30.316145458221435,1.2728259678557514,0.016626219147617378,-0.169825265,-0.071064547,-0.102835838,0.030711382587363455,0.012280699456205538,-50.5,Campus
96,9.740019409401903,0.33620319519083475,-0.85960992,-0.002278931,0.026101971837656144,-0.01747963,-103.7617297,74.28274887084962,-27.86992342,-0.045744346,0.038270309,0.018105930187210524,0.9974584235594823,0.078240099,-0.032114252,0.093095664,45,0.3193575143814087,3.5847010612487793,7.015999794006348,1.4236057996749878,358.4528809,160.6999969482422,-86.9105959,40.4269872,9.740019409401903,0.33620319519083475,-0.85960992,-42.20162926,30.66250347137451,0.4505459938570857,-0.176089947,0.007698664,-0.075439216,-0.023811295,0.042472973,-0.017419427,-46.66666667,Campus
97,9.866528303,-0.132740671,-0.640347214,0.026727534,-0.027408066,-0.057142387,-103.186744,76.27647254943848,-28.04291946,-0.028353132,0.033121283,0.002586572,0.9985565861451973,0.066744564,-0.002966858,0.057153367,45,0.2914177477359772,3.604637384414673,7.264999866485596,1.4558416604995728,358.8661804199219,160.6999969482422,-86.9106049,40.4270209,9.866528303,-0.132740671,-0.640347214,-41.62700935,32.6569594,0.27730598947033286,-0.051567832,-0.161786533,0.022327344539096055,0.005195166,-0.011044179,-0.057086046,-45.25,Campus
98,9.883362219171616,0.25864264600485276,-0.471368649,-0.01127547,-0.022272206,0.081632619,-103.3070362,76.60196830749511,-27.68362955,-0.007759982,0.030391766526962367,0.011424263,0.9989993676398564,0.061146313,-0.022015192,0.016169396226969095,45,0.3416944742202759,3.6147141456604004,7.118999958,1.495983600616455,356.9386291503906,160.6999969482422,-86.9105965,40.4270361,9.883362219171616,0.25864264600485276,-0.471368649,-41.74681305,32.98172332763672,0.6365959819220006,-0.046339081,0.039747087773188805,0.13624719523110437,-0.032807837,-0.005914247,0.081700819,-20.44444444,Campus
99,9.795777399563095,0.2981358278108743,-0.699714774,-0.071956917,0.051752997598457105,-0.001240971,-104.7727442,76.43019218444825,-27.50782757,-0.005286015,0.040388624,0.015030601747586613,0.9986817298583615,0.08128324,-0.029358313,0.011811371214543153,45,0.3416944742202759,3.6147141456604004,7.118999958,1.495983600616455,356.9386291503906,160.6999969482422,-86.9105965,40.4270361,9.795777399563095,0.2981358278108743,-0.699714774,-43.2126432,32.80958129882813,0.8119099766016007,-0.10280748,0.006652156,0.10674777164042575,-0.093489283,0.068115399,-0.001203903,-8.625,Campus
100,9.803072017,0.20217899236719586,-0.89572586,0.001842919,-0.010838092,0.032207365,-104.5525339,75.86045242309571,-28.48346151,-0.006152221,0.036943495309757955,0.007922692,0.9986773654095178,0.074636615,-0.014837675,0.013064744,45,0.40822410583496094,3.644641637802124,6.941999912261963,1.5949136018753052,359.9474792480469,160.6999969482422,-86.9106,40.427073,9.803072017,0.20217899236719586,-0.89572586,-42.99231091,32.24069538116455,-0.16348,-0.117232864,0.054871825,-0.154114944,-0.019689445,0.005522831,0.032260739798341126,-8.222222222,Campus
101,10.125856005228483,0.2579992005585854,-0.707536374,-0.006768249,-0.014692952,-0.035543303,-104.328664,73.58503067016602,-30.41581944,-0.017854411,0.025732225846969388,0.013917137909673824,0.9987828963011214,0.052137944973932884,-0.026461743,0.036512036352346025,45,0.38769468665122986,3.6546573638916016,6.834000110626221,1.561180591583252,1.230955958366394,160.6999969482422,-86.9105995,40.4270892,10.125856005228483,0.2579992005585854,-0.707536374,-42.76844128,29.965639419555664,-2.095105965,0.1777721701316463,-0.002510338,-0.184401284,-0.028300613,0.001673899,-0.035489929,-13.88888889,Campus
102,9.986032925763176,0.3107736500622072,-0.604460687,0.055929589781512336,-0.005797117,-0.017799081,-102.9343262,71.44820068359375,-30.22415741,-0.026221586,0.028103040006843584,0.01553655,0.9987238043720282,0.05720344,-0.029243821,0.053373378,45,0.4232546091079712,3.6646924018859863,6.598999977111816,1.5509779453277588,1.9913233518600464,160.6999969482422,-86.9105977,40.427103,9.986032925763176,0.3107736500622072,-0.604460687,-41.37422531,27.82905351638794,-1.904419955,0.077429443,0.013836708896368453,-0.050159325,0.034397224113525984,0.010562320307656688,-0.017739775,-10.75,Campus
103,9.929412476067403,0.3398650308282033,-0.428861187,0.059997952,-0.029460038,-0.045945498,-101.5970843,70.42144859313964,-28.83030745,-0.003566955,0.028729055456600143,0.017892577,0.9989526387557243,0.057496181137642814,-0.035329707,0.007963572,45,0.4284360706806183,3.6746459007263184,6.618999958,1.5985127687454224,0.1929745227098465,160.6999969482422,-86.910597,40.4271159,9.929412476067403,0.3398650308282033,-0.428861187,-40.03649532,26.801447486877443,-0.50971599,-0.009979804,0.001958697,0.15462640115936982,0.038465585,-0.013097632,-0.045899537,-11.66666667,Campus
104,10.163064104839435,-0.017815496,-0.534392218,-0.043763055,0.026825386994672053,-0.012864857,-100.18652,71.54079826,-27.36606342,0.014719503072149219,0.031899312,0.004771964,0.9984896825355234,0.064288241,-0.009484996,-0.028848054,45,0.30679842829704285,3.6746459007263184,6.5929999351501465,1.399499535560608,357.9425354003906,160.6999969482422,-86.9105996,40.4271295,10.163064104839435,-0.017815496,-0.534392218,-38.62617531,27.921529426574708,0.9524539791420102,0.24932659945441682,-0.100574552,0.097692557,-0.065295418,0.043181859147260235,-0.012802586,-14,Campus
105,9.896496671,-0.096467925,-0.636307876,0.090872427,-0.073215677,-0.033028747,-99.64593811,72.75116104125976,-27.80965549,-0.013662985,0.030653281,-9.76E-04,0.9991428869441875,0.06157188,0.002934099,0.027179454,45,0.30679842829704285,3.6746459007263184,6.5929999351501465,1.399499535560608,357.9425354003906,160.6999969482422,-86.9105996,40.4271295,9.896496671,-0.096467925,-0.636307876,-38.0859594,29.131159400939943,0.5098379871249199,-0.009526507,-0.072988131,-0.021403341,0.069340058,-0.056866619,-0.03297982,-30.88888889,Campus
106,9.717531491251824,0.2242777494700101,-0.750629048,-0.019194699,0.030178204,0.014343161807538798,-100.8809442,72.26157501220703,-26.90331745,-0.015721916,0.032308837,0.013804034386479404,0.9984116261968246,0.065879796,-0.025679783,0.032537479,45,0.3280590772628784,3.694627285003662,6.665999889373779,1.3941240310668945,354.7337951660156,160.6999969482422,-86.9106046,40.4271579,9.717531491251824,0.2242777494700101,-0.750629048,-39.32047733,28.641451396942138,1.417151975631714,-0.20077527,-0.044117046,-0.097135441,-0.040727065,0.04653452,0.014404835,-34.875,Campus
107,9.830917645426629,-0.054076634,-0.689632395,0.043273782,-0.018405481,-0.028770609,-101.2836656,76.16813636779786,-25.37050953,0.005753142,0.037177790625436795,-0.007782122,0.9985252734526847,0.074909196,0.015754995,-0.012083737,45,0.2852959632873535,3.704700469970703,6.670000076293945,1.4163817167282104,350.5011901855469,160.6999969482422,-86.9106084,40.4271738,9.830917645426629,-0.054076634,-0.689632395,-39.72368717,32.548013305664064,2.9495939481258393,-0.079792472,0.10326349250610592,0.053964148,0.021741419,-0.002047524,-0.028732061,-39.66666667,Campus
108,9.793070973701848,-0.556996258,-0.891596496,0.1009425096647832,0.016501772,-0.061175167,-102.5002505,81.08534614562988,-24.2840995,0.025711218856918756,0.045042399,-0.036341153,0.9969524376600691,0.092843971,0.070965526,-0.05507823,45,0.2852959632873535,3.704700469970703,6.670000076293945,1.4163817167282104,350.5011901855469,160.6999969482422,-86.9106084,40.4271738,9.793070973701848,-0.556996258,-0.891596496,-40.94002712,37.46461322784424,4.0357599186897275,-0.081184933,0.1489217460734173,0.027630469,0.079410145,0.032868622,-0.061145514,-43.375,Campus
109,9.844626996123676,-0.411190887,-0.3770409,-0.073000696,-0.10022343,0.11900698219977536,-106.0864398,80.25879631,-25.17201551,0.045028385,0.020997027188280042,-0.020745955,0.9979601623942551,0.043860656,0.039493597,-0.091125705,45,0.4865257143974304,3.7346737384796143,6.783999919891357,1.6923547983169556,346.3959655761719,160.6999969482422,-86.9106164,40.427204,9.844626996123676,-0.411190887,-0.3770409,-44.52633926,36.63867340087891,3.1472339355945587,-0.092104995,-0.017416465,0.059174398,-0.094533062,-0.083877335,0.1190781486989225,-44.66666667,Campus
110,10.01368689305574,0.084027571,-0.26087285,-0.139387338,0.018067439,0.010228726210398147,-109.3054099,75.57558280944824,-27.92043131,-0.002502569,0.011292121,0.001062647,0.9993419600921927,0.022436683426640583,-0.001445465,0.005046306,45,0.4405325651168823,3.7447242736816406,6.8420000076293945,1.5372779369354248,349.387207,160.6999969482422,-86.9106197,40.4272202,10.01368689305574,0.084027571,-0.26087285,-47.7453091,31.955581493377686,0.39906199522316455,0.079254058,0.070484071,-0.038080233,-0.160919703,0.034429842,0.010286549226046332,-47.375,Campus
111,10.147037648237669,0.15232386927192026,-0.200879188,-0.078539832,-0.031464564,0.027688283893704705,-109.3107781,72.99369674682617,-28.51505945,-0.035398047,0.00882338,0.006732243,0.9988909294304339,0.018263711736456138,-0.012260522,0.070950669,45,0.4982675611972809,3.754831075668335,6.965000152587891,1.5357271432876587,359.2842712402344,160.6999969482422,-86.9106187,40.4272393,10.147037648237669,0.15232386927192026,-0.200879188,-47.75055504,29.37418336868286,-0.195565995,0.18459726074366894,0.001788301,-0.003233536,-0.1000722,-0.015103643,0.027737211205463096,-52.66666667,Campus
112,10.042130715638688,0.5074991009975738,-0.123692091,0.007939532,0.060281137171771054,0.003752559,-109.7097181,72.20081893920899,-29.58621941,-0.044567882,0.002279005,0.020517415342766576,0.9985583372486447,0.006669201,-0.040666764,0.089445313,45,0.4979032576084137,3.7646491527557373,7.132999897003174,1.5320112705230713,5.222446441650391,160.6999969482422,-86.910614,40.4272544,10.042130715638688,0.5074991009975738,-0.123692091,-48.14973892,28.58032943725586,-1.265505971,0.10600543716578807,0.14472345212130872,-0.108605938,-0.013592834,0.076639092,0.003795554,-58,Campus
113,9.950381607685275,0.086585914,-0.307007272,0.073863593,0.007321272,-0.050168056,-110.0033717,73.46290855407715,-27.63848957,-0.02373133,0.028473493,0.011803444844525923,0.9983813617993327,0.058284717,-0.021155488,0.048470979,45,0.31632646918296814,3.7646491527557373,7.293000221252441,1.3874316215515137,1.799074411392212,160.6999969482422,-86.9106144,40.4272664,9.950381607685275,0.086585914,-0.307007272,-48.44388107,29.842297439575194,0.681857983,0.024951166319615633,-0.120284589,0.28905492398924043,0.052331225,0.02367478,-0.050125059,-60.125,Campus
114,9.787521589149549,-0.087936236,-0.382206948,-0.059787417,0.027544466,-0.001940775,-110.1335456,74.01056671142578,-28.38830141,-0.018411924,0.020064681,-0.002431189,0.9992073288241636,0.039962094042052344,0.005609635,0.036779042,45,0.30233001708984375,3.7746169567108154,7.447000026702881,1.3406633138656616,1.9908407926559448,160.6999969482422,-86.9106118,40.42728,9.787521589149549,-0.087936236,-0.382206948,-48.57356712,30.39093151092529,-0.068563998,-0.122172573,-0.041444678,0.037755968935281325,-0.081319783,0.043911318,-0.001897778,-61,Campus
115,10.080203875754643,-0.188847139,-0.415779072,0.046843981,-0.01189373,-0.063523669,-109.3266378,71.31253677368164,-27.16366545,0.003783029,0.027892386,-0.004977136,0.9989832084155778,0.056184651,0.010102674693380057,-0.007803036,45,0.3297998905181885,3.784623146057129,7.534999847412109,1.5185831785202026,343.565918,160.6999969482422,-86.9106259,40.427303,10.080203875754643,-0.188847139,-0.415779072,-47.76665936,27.69290147781372,1.1561939707025886,0.1245142094139914,-0.077314833,0.1284145429296401,0.025311612,0.004461261,-0.06348512,-67.5,Campus
116,9.766485616998764,-0.363819389,-0.178160747,-0.05909947,0.002419896,-0.0343954,-105.1458194,71.79126480102539,-28.68158955,0.011351126179551311,0.008758818,-0.018102505,0.9984584267322834,0.018592107,0.037352525,-0.023041123,45,0.35763874650001526,3.794677257537842,7.475999832,1.434178113937378,344.48272705078125,160.6999969482422,-86.9106338,40.4273171,9.766485616998764,-0.363819389,-0.178160747,-43.58645111,28.170897445678712,-0.361729996,-0.16078882,-0.004347551,0.016577320030102365,-0.080631837,0.018783553,-0.034355754,-70.11111111,Campus
117,9.769372157680179,-0.273867846,-0.433074759,-0.082465863,-0.042495399,0.043949868,-102.1455962,73.28820426940918,-27.51270746,-0.009704307,0.019830844,-0.013454015,0.9987973246759582,0.039119064,0.028151933892146295,0.018797019707916068,45,0.44874653220176697,3.814692258834839,7.4079999923706055,1.5369566679000854,348.94952392578125,160.6999969482422,-86.9106318,40.4273335,9.769372157680179,-0.273867846,-0.433074759,-40.58549519,29.66820344924927,0.8067859845981001,-0.172560905,0.006976876,-0.044133955,-0.10399823,-0.026137442,0.044004724,-61.875,Campus
118,9.646455419873728,-0.071346181,-0.407267712,-0.030241386,0.062256009719171786,0.019124560449181975,-102.9054118,74.83675079345703,-28.19505337,-0.037963701,0.017071801920147903,-0.004856723,0.9986285700381381,0.033866760862137316,0.011440616122501206,0.0757248,45,0.466147244,3.8246824741363525,7.348999977111816,1.585672378540039,338.3537598,160.6999969482422,-86.9106357,40.4273507,9.646455419873728,-0.071346181,-0.407267712,-41.34543304,31.216871452331542,0.1249279971048236,-0.289798093,0.043031092,-0.070513802,-0.051773754,0.078628794,0.019188313114285035,-63.33333333,Campus
119,10.124418823464403,-0.606809948,-0.455353566,0.097016481,-0.042210732,-0.034713026,-103.4362338,77.74217987060547,-27.71339754,-0.026853333,0.018767456,-0.027177087,0.9986591396979916,0.036259444,0.055784309,0.052588373,45,0.41809532046318054,3.8347747325897217,7.271999835968018,1.4690295457839966,342.2162170410156,160.6999969482422,-86.9106403,40.4273661,10.124418823464403,-0.606809948,-0.455353566,-41.8757671,34.12291120529175,0.6063399897888303,0.19995756982599647,-0.051015106,-0.095955787,0.075484116,-0.025851292,-0.034672996,-64.75,Campus
120,10.142338799041452,-0.226255318,-0.047821608,0.033179978,-0.003223257,-0.025081804,-103.622772,74.45330444335937,-29.26145546,7.704812558639107E-4,-0.004776825,-0.011898595,0.9991927210567066,-0.009174575,0.024449496483656314,-0.001726131,45,0.4109267294406891,3.844653367996216,7.079999923706055,1.3993189334869385,351.0762939453125,160.6999969482422,-86.9106362,40.42738,10.142338799041452,-0.226255318,-0.047821608,-42.06303711,30.83293733596802,-0.941961987,0.20273276671622564,0.018060048300664402,-0.13964366,0.011647613122335915,0.013152490541772935,-0.025038807,-66.625,Campus
121,10.085609385600456,-0.553978702,-0.147331153,0.13877945491881336,-0.052695954,-0.063215278,-102.43376,75.79530433654786,-27.52478548,0.040430699,0.002597303,-0.018562778,0.998648356,0.006652629,0.03705051,-0.081205274,45,0.2701883018016815,3.8547117710113525,6.839000225067139,1.352285623550415,353.53546142578125,160.6999969482422,-86.9106327,40.4273939,10.085609385600456,-0.553978702,-0.147331153,-40.8736591,32.17554738998413,0.79556199,0.10589367209128964,-0.16856626,-0.08747948,0.11724708923726405,-0.036332069,-0.063175246,-77.77777778,Campus
122,10.029127009863993,-0.505945507,0.041795989,0.10731192600452205,-0.017456592,0.047911479,-102.3176157,76.14422470092774,-26.10543747,0.091796694,-0.00300309,-0.020543626,0.9951873375374136,-0.002133962,0.041598367309242996,-0.183685596,45,0.23180824518203735,3.8547117710113525,6.1579999923706055,1.3573181629180908,349.18133544921875,160.6999969482422,-86.9106348,40.4274061,10.029127009863993,-0.505945507,0.041795989,-40.7571492,32.52349143981934,2.2149099481105803,0.13404630457313316,-0.105442703,0.043606151,0.085779561,-0.001092705,0.047972267617932655,-83.875,Campus
123,9.723728490107268,-0.31242888,-0.025847708,0.002874837,0.030560155,-0.043347915,-102.5684483,75.32889877319336,-24.25140366,0.11921074458406968,0.005957294,-0.016829096,0.9920996149766792,0.015854141724666634,0.032682429,-0.239462552,45,0.23180824518203735,3.8547117710113525,6.1579999923706055,1.3573181629180908,349.18133544921875,160.6999969482422,-86.9106348,40.4274061,9.723728490107268,-0.31242888,-0.025847708,-41.00932323,31.709263401031492,4.068211922645569,-0.211070126,0.011641605,0.11669722297093243,-0.018657527,0.046919594,-0.043315297,-76.11111111,Campus
124,9.755325909957145,-0.541492278,-0.855564777,0.10875898473037099,-0.027633426,0.00780906,-101.7855743,77.13584068,-23.81305758,0.083126467,0.028578132806906423,-0.030831487,0.9947403437882951,0.062629724,0.057343677572399665,-0.168533796,45,0.24875836074352264,3.4021472930908203,4.681000232696533,1.2685844898223877,340.41192626953125,155.79998779296875,-86.9106421,40.427429,9.755325909957145,-0.541492278,-0.855564777,-40.22608326,33.51486351013184,4.505825893878937,-0.133038669,0.014203728619709756,-0.232029141,0.087226615,-0.01126954,0.007844644,-77.88888889,Campus
125,9.777018144,-0.422736835,-0.526293214,0.090722568,-0.002748814,-0.011453386,-101.7605638,75.72747230529785,-21.2067716,0.1631609545304225,0.022241836077927683,-0.031494387,0.9852680798906547,0.054379911,0.055415867,-0.329670207,45,0.4173170328140259,3.422199010848999,4.320000171661377,1.4666744470596313,343.3896484,155.79998779296875,-86.9106436,40.4274429,9.777018144,-0.422736835,-0.526293214,-40.20058544,32.10783723831177,7.112599835395813,-0.17755347,0.14254539330991414,0.013220791346751727,0.069190197,0.013620721238951843,-0.011413739,-78,Campus
126,9.950419416705381,-0.542322801,-0.28186812,-0.052374223,-0.050122093,0.070578063,-101.3622339,75.15370697021484,-21.29534361,0.17606741443131735,0.012430026788474739,-0.027657352,0.9832200940372875,0.034288385092507985,0.050784184,-0.355280294,45,0.41310229897499084,3.4321091175079346,4.6020002365112305,1.511247158050537,339.0696716308594,155.79998779296875,-86.9106447,40.4274559,9.950419416705381,-0.542322801,-0.28186812,-39.80201118,31.53382740020752,7.024637885093689,0.021291024,-0.036526683,0.058326717,-0.073906587,-0.033752278,0.070643299,-79.77777778,Campus
127,9.827174501511657,-0.119095199,-0.184253151,0.022848950166060835,-0.004504258,0.012102782048140337,-101.9090383,74.00763847351074,-22.3296595,0.16201875792834367,0.004734566,-0.002533696,0.9861146338935037,0.010229721936076264,0.004286399,-0.325634256,45,0.40410274267196655,3.442129611968994,5.481999874,1.5531986951828003,331.2513732910156,155.79998779296875,-86.9106494,40.4274705,9.827174501511657,-0.119095199,-0.184253151,-40.34881516,30.387271327972414,5.990321893692016,-0.113455684,-0.075926216,-0.082765996,0.001316586,0.011859631251760767,0.012147262,-75.5,Campus
128,9.963942912018414,-0.075039967,0.3120920227171437,0.13231514978168296,-0.002582757,0.014059865198468843,-103.1306241,74.10841064453125,-21.27960556,0.20307372626170372,-0.012485745,-0.006706648,0.9780774591038528,-0.02183845,0.018525447,-0.4092052,45,0.4231654405593872,3.4521610736846924,5.887000084,1.4959309101104736,326.52130126953125,155.79998779296875,-86.910661,40.4274844,9.963942912018414,-0.075039967,0.3120920227171437,-41.57064522,30.487921352386476,7.0407418394088745,0.032906319,0.10958813664331599,0.094957629,0.11078278326149125,0.013772233520426507,0.014111756539261602,-76.11111111,Campus
129,9.929302169281302,0.18566445206649132,0.018637300188680296,0.052418699554163166,-0.054747927,0.001831059,-104.1004018,70.03690452575684,-19.29930151,0.24913220556036939,-0.006355351,0.008109644,0.9676671786215699,-0.016133314,-0.011756754,-0.503937925,45,0.411411315,3.462087631225586,6.362999916,1.4953656196594238,324.1717529296875,155.79998779296875,-86.9106719,40.4274943,9.929302169281302,0.18566445206649132,0.018637300188680296,-42.54017929,26.41751350402832,9.020557842,0.005883282,0.069718605,-0.141662695,0.030886333815536453,-0.038381075,0.001875538,-63.25,Campus
130,10.226877918610207,0.15942468878347427,0.17646779686821482,0.011070865577141058,0.051242967529529795,7.27975257283565E-4,-103.3422943,69.62369072,-19.11996159,0.26954253596588246,-0.003084779,0.002195505,0.9624779380640938,-0.007414732,-0.002512724,-0.546087892,45,0.4373263716697693,3.472264289855957,6.7230000495910645,1.5243257284164429,324.65277099609375,155.79998779296875,-86.9106824,40.4275059,10.226877918610207,0.15942468878347427,0.17646779686821482,-41.78231506,26.003567543029785,9.200385837554931,0.2879764964279619,0.13480913349725668,0.092590725,-0.010461501,0.067609819,7.591102932335682E-4,-65.77777778,Campus
131,9.846955947505618,0.33429822980796975,0.15730775922770812,0.011652059907328736,-0.014206646,0.012268837676971282,-103.6754762,68.03598243713378,-18.84875563,0.27902103844776893,-0.001238884,0.018992416133416942,0.9593249275846388,-0.012509029,-0.03504477,-0.566135268,45,0.2895413935184479,3.472264289855957,6.686999797821045,1.3984544277191162,324.52972412109375,155.79998779296875,-86.9106968,40.4275197,9.846955947505618,0.33429822980796975,0.15730775922770812,-42.11561928,24.415981483459472,9.471591787338257,-0.061966364,-0.009701711,0.038064596830930525,-0.009880306,0.002160204,0.012317765,-59.125,Campus
132,9.778571717,0.039600635544188974,0.066804469,0.069391951,0.080901679,-0.077009751,-103.397194,67.73903465270996,-17.18491973,0.31922955565082217,0.00167975,0.007518078,0.9470817458282397,-0.001180929,-0.015160591,-0.650147527,45,0.3398698568344116,3.482102870941162,6.631000042,1.4379972219467163,326.8731994628906,155.79998779296875,-86.9107058,40.427528,9.778571717,0.039600635544188974,0.066804469,-41.83782509,24.11878957748413,11.135183811187744,-0.168589425,-0.093348122,0.067826852,0.047859588,0.097259636,-0.076972685,-64.88888889,Campus
133,10.05146678443094,-0.142573314,0.015631754584248782,-0.022436777,-0.01487087,-0.004977218,-103.1531943,69.50547294616699,-16.19013166,0.31496395908513114,0.00485403,-0.009175696,0.9485993813542486,0.015253242661891668,0.014764144110778183,-0.641242004,45,0.3398698568344116,3.482102870941162,6.631000042,1.4379972219467163,326.8731994628906,155.79998779296875,-86.9107058,40.427528,10.05146678443094,-0.142573314,0.015631754584248782,-41.59358105,25.886203556060792,12.129971780776977,0.1532968872959174,-0.002765408,0.14981737016763502,-0.043969141,0.001491535,-0.004934222,-68,Campus
134,9.734217458558314,0.345864507,0.09507695,-0.024322693,-0.048817371,0.079177369,-103.6866998,64.97646671295166,-16.11302756,0.31901458947403916,0.009287488,0.023797194494920088,0.9469218045762442,0.002165434,-0.05043816,-0.650056047,45,0.2937649190425873,3.502145767211914,6.645999908447266,1.443994164466858,321.0562438964844,155.79998779296875,-86.9107348,40.4275488,9.734217458558314,0.345864507,0.09507695,-42.12684338,21.355001621246338,12.207929725646972,-0.166245752,-0.181017806,0.11854589074054389,-0.045855059,-0.032454967,0.079229263,-66.375,Campus
135,9.726879254,0.8952496175120757,0.051799961,0.021332667365920946,0.012475379,0.047481626648312576,-103.6503439,62.42276298522949,-16.31688968,0.3286191752323738,0.010965043622421105,0.044271842,0.9429447221068236,-0.008467672,-0.090522672,-0.671122207,45,0.2913583219051361,3.5121357440948486,6.567999839782715,1.483311653137207,325.3231201171875,155.79998779296875,-86.9107446,40.4275601,9.726879254,0.8952496175120757,0.051799961,-42.09060917,18.800809602737427,12.003335819244384,-0.224490899,0.003415546,-0.023634601,-2.00E-04,0.028843443357170775,0.047521273,-62.77777778,Campus
136,9.998354212751666,0.4533237376458292,-0.241195943,-0.035436552,0.088546165,-0.079227779,-102.304318,63.890788841247556,-14.2589937,0.3529783386049919,0.020537848,0.015145597180907695,0.934652828,0.027851949,-0.04262513,-0.721664139,45,0.2913583219051361,3.5121357440948486,6.567999839782715,1.483311653137207,325.3231201171875,155.79998779296875,-86.9107446,40.4275601,9.998354212751666,0.4533237376458292,-0.241195943,-41.94176922,14.01255364894867,15.293065719604492,0.083831426,0.031234588944217535,0.035242592572297865,-0.056968917,0.10492339577453519,-0.079172922,-74.125,Campus
137,10.087817914277604,-0.079642668,-0.071903736,-0.006447998,-0.035473618,0.027901782333236008,-101.1520281,66.94200881958008,-14.2044597,0.35661075994806385,0.007776254,-0.006875699,0.9335293648312393,0.019833034284725656,0.007799849,-0.729864758,45,0.3223012387752533,3.5321435928344727,7.356999874,1.437783957,318.1133117675781,155.79998779296875,-86.9107708,40.4275906,10.087817914277604,-0.079642668,-0.071903736,-41.69227943,12.342251749038697,16.276141710281372,0.13955291729528926,-0.001207031,0.12516700411305845,-0.027980364,-0.019127526,0.027956640162478084,-78.44444444,Campus
138,9.941103620436586,0.33106037033993063,-0.028345079,-0.05618164,-0.004278896,0.003337419,-101.9967558,66.01554107666016,-15.2007117,0.3265919083530463,0.012345034377662142,0.013748809,0.9444969279094807,0.014530694640430315,-0.033566725,-0.665555463,45,0.3475380837917328,3.5422861576080322,7.664999961853027,1.2209267616271973,316.3146973,155.79998779296875,-86.910779,40.4275975,9.941103620436586,0.33106037033993063,-0.028345079,-42.53712929,11.41566180229187,15.279523763656616,0.008296013,-0.002362381,0.11618458515810735,-0.077714005,0.012087956,0.003375968,-73.375,Campus
139,9.88129182,0.4273250195224887,0.3780108031690193,0.028340644221210364,-0.033314897,-0.069288168,-102.0543394,66.49975872039795,-18.37185762,0.2995291902023612,-0.015285228,0.029632610152475536,0.9531054155340473,-0.04709197,-0.047179077,-0.610413124,45,0.3475380837917328,3.5422861576080322,7.664999961853027,1.2209267616271973,316.3146973,155.79998779296875,-86.910779,40.4275975,9.88129182,0.4273250195224887,0.3780108031690193,-42.59446922,11.900367774963378,12.108377742767335,-0.028584175,-0.040580375,-0.088601196,0.006808279,-0.016956941,-0.069248138,-73.55555556,Campus
140,10.070035952788134,-0.191980876,0.13520022732420608,0.10776264918515983,0.020024521989539915,-0.019661275,-100.0880661,67.76075073242187,-16.14852974,0.35373624551643446,-0.010651374,-0.003899149,0.9348078254357125,-0.016939502,0.015263595067312742,-0.723062312,45,0.18204185366630554,3.5621345043182373,6.693999767303467,1.2864234447479248,332.05975341796875,155.79998779296875,-86.9108017,40.4276106,10.070035952788134,-0.191980876,0.13520022732420608,-40.6279512,13.160871725082398,14.332437772750854,0.10257387161254883,-0.024627775,-0.025716414,0.086230284,0.03638989,-0.019615314,-69.5,Campus
141,10.195471735833918,-0.361141986,-0.145593385,0.032231088,-0.037371399,-0.055446251,-98.92467422,67.95582885742188,-14.90961967,0.36181289941361805,-3.63E-04,-0.015346014,0.9316661155339584,0.010203113137445981,0.029435700761805315,-0.741286061,45,0.22129234671592712,3.572091579437256,5.875,1.2752389907836914,332.69232177734375,155.79998779296875,-86.9108097,40.4276206,10.195471735833918,-0.361141986,-0.145593385,-39.46529129,13.355705699920655,15.571103715896607,0.3204910593125427,-0.06898957,-0.050631272,0.010698721156392282,-0.021004546,-0.05540622,-72.44444444,Campus
142,9.774230369086405,0.11342386020691071,0.18086428300577026,-0.101064086,-0.001396646,0.045112257,-99.18953621,65.92135684967042,-15.94564368,0.35056805003036573,-0.005040562,0.007847313,0.935785391,-0.014917583,-0.010824979,-0.717041301,45,0.2278413623571396,2.4156081676483154,4.757999897003174,1.2869668006896973,325.6893615722656,156.1999969482422,-86.9108274,40.427635,9.774230369086405,0.11342386020691071,0.18086428300577026,-39.72954323,11.32111177444458,14.534347696304321,-0.144466507,0.001696631,0.042650559754336924,-0.122596452,0.014958345548258823,0.045174527,-66.66666667,Campus
143,9.950657488,-0.27807561,0.031722323,0.013704031769150091,-0.025421329,-0.076309948,-96.82029617,66.83318462371827,-16.56406173,0.3262583271971027,-0.006715139,-0.003322659,0.9445212645438111,-0.010728258,0.010607788950720242,-0.6652204,45,0.23984383046627045,2.4257779121398926,3.940999984741211,1.3358585834503174,322.8194274902344,156.1999969482422,-86.9108374,40.4276417,9.950657488,-0.27807561,0.031722323,-37.34468723,12.264537801742554,13.806739740371704,0.001135618,-0.162010554,-0.078891414,-0.007828333,-0.009070787,-0.07626547,-68.5,Campus
144,9.855635763372032,-0.65267432,0.244393148,0.071550672,-0.039281037,0.040118728,-94.69761841,70.9425106,-15.13483169,0.3473539841406554,-0.026303675,-0.025652879,0.9366558431421669,-0.031672271,0.066545582,-0.709033199,45,0.23984383046627045,2.4257779121398926,3.940999984741211,1.3358585834503174,322.8194274902344,156.1999969482422,-86.9108374,40.4276417,9.855635763372032,-0.65267432,0.244393148,-35.17772316,16.462801790237428,14.92511365890503,-0.04302904,-0.003792421,-0.070995364,0.050018308,-0.022920116,0.040175068,-66.55555556,Campus
145,9.779291889,-0.478468697,0.623045719,0.025878778498176522,-0.033855035,-0.032656834,-96.38341385,70.79281616210938,-15.84096768,0.3708327905489848,-0.037497051,-0.004074758,0.9275147995123496,-0.066665194,0.035380982,-0.759472528,45,0.17842978239059448,2.4455888271331787,3.7960000038146973,1.3423116207122803,318.12835693359375,156.1999969482422,-86.9108716,40.4276614,9.779291889,-0.478468697,0.623045719,-36.86315342,16.312985715866088,14.218855695724487,-0.165753534,-0.124624295,-0.049889134,0.004346413,-0.017501655,-0.032611315,-70.375,Campus
146,9.913342221,-0.373341317,0.5904725462885447,-0.009389551,0.032087273,0.064730536,-96.67511658,70.56394462585449,-16.1792736,0.38503625410274395,-0.03097809,-0.00429568,0.9220845994440098,-0.053740588,0.03209909,-0.790176658,45,0.20699305832386017,2.465566396713257,3.7899999618530273,1.320930004119873,311.4474792480469,156.1999969482422,-86.9109011,40.4276788,9.913342221,-0.373341317,0.5904725462885447,-37.15497738,16.239785747528074,13.09755371,-0.006594366,-0.053998153,0.057100808736190056,-0.03092192,0.048442264,0.06477205,-68.88888889,Campus
147,9.898317415737411,0.4136185614059869,0.1680899809376852,-0.092618974,0.022396744905916737,0.052857563,-96.95669205,68.68514450073242,-15.78167568,0.35522013815861303,-6.09E-04,0.02344261,0.9336185623141169,-0.017885646,-0.043059971,-0.727504661,45,0.20699305832386017,2.465566396713257,3.7899999618530273,1.320930004119873,311.4474792480469,156.1999969482422,-86.9109011,40.4276788,9.898317415737411,0.4136185614059869,0.1680899809376852,-37.43643143,14.385141696929931,13.37790974,-0.016944982,-0.013229257,-0.009324923,-0.11415134,0.038736909,0.052909455,-65.625,Campus
148,9.865340593949105,0.8005530831813179,0.12387503501371418,0.069818951,0.013643244023715119,-0.008772775,-96.30740829,67.91849639892578,-16.07020566,0.35713114697956344,-8.53E-04,0.034102536,0.9330495561210854,-0.026034003,-0.063048264,-0.731934174,45,0.2129606306552887,2.568296194076538,3.628000020980835,1.334085226,312.2089538574219,155.79998779296875,-86.9109193,40.4276919,9.865340593949105,0.8005530831813179,0.12387503501371418,-36.78787937,13.61837176322937,13.090233726501465,-0.032127547,0.17582771153125948,-0.134269583,0.048286588,0.029989338959725484,-0.008743122,-76.11111111,Campus
149,9.753479045571632,0.7397887410541761,0.17637193354877453,0.051208869,-0.002369257,-0.040940111,-94.68859016,66.53416259765625,-14.16505374,0.39194229331988734,0.004691442,0.035818523,0.9187974756203808,-0.019562568,-0.069527034,-0.807155098,45,0.16849493980407715,2.578226327896118,3.4170000553131104,1.2969868183135986,315.8709411621094,155.79998779296875,-86.9109289,40.4276996,9.753479045571632,0.7397887410541761,0.17637193354877453,-35.38768528,12.526837749481201,15.105063724517823,-0.141784089,0.050931697,-0.017581732,0.029676503,0.013982768346853917,-0.040917871,-79.625,Campus
150,10.057039352563711,0.3357515548928999,-0.057315578,0.097597678,0.006858689,0.024319728,-91.03652008,66.43095066070556,-11.95404772,0.440461436,0.015484067943759231,0.020172538789782847,0.896701482,0.010103385999967747,-0.049575367,-0.912860469,45,0.16402678191661835,2.588151216506958,3.240999937057495,1.2586687803268433,313.0834045410156,155.79998779296875,-86.9109378,40.4277063,10.057039352563711,0.3357515548928999,-0.057315578,-31.87640347,12.611627769470214,17.38536566734314,0.10546104653367719,-0.139059643,0.047599297,0.076065311,0.023209230622245017,0.024356793004169482,-78.88888889,Campus
151,9.481864577358209,0.6069841795573825,0.1062076397746512,-0.016660415,-0.018547814,0.021129087,-89.55971039,64.83275096893311,-11.13933176,0.4776896631833419,0.016862925738819593,0.029798866,0.8769731295918956,0.001658767,-0.068573563,-0.997554495,45,0.20888905227184296,2.598212718963623,3.194000005722046,1.2442076206207275,308.6783752441406,155.79998779296875,-86.9109468,40.4277116,9.481864577358209,0.6069841795573825,0.1062076397746512,-30.39934942,11.013305788040162,18.20056966781616,-0.39416265,-0.094123341,0.12331734196219629,-0.038192781,-0.002203202,0.021152808823740307,-81,Campus
152,9.843529316985492,0.2165097938579263,0.17487351561995965,0.026786836225864957,0.032300772371439676,0.032207367,-89.84458031,66.78853290557862,-11.02257777,0.4952631193457298,0.002809397,0.021115861,0.8675448495207481,-0.015815066,-0.039113028,-1.037656947,45,0.21246464550495148,2.6364388465881348,3.252000093460083,1.281151294708252,303.4333496,161,-86.9109659,40.4277193,9.843529316985492,0.2165097938579263,0.17487351561995965,-30.85526337,13.002515707015991,17.975479640960693,-0.060115286,-0.173106324,0.021077810922293987,0.005254468,0.048640936346344865,0.032266673650050044,-78.66666667,Campus
153,10.164530508726546,-0.080409295,0.034135473,0.076994923,-0.022509425,0.003218809,-89.32059052,65.28817695617676,-11.17092976,0.5110017706468267,0.017774247325301914,0.034375831,0.8579687186815206,-0.004948287,-0.077497191,-1.074400277,45,0.21246464550495148,2.6364388465881348,3.252000093460083,1.281151294708252,303.4333496,161,-86.9109659,40.4277193,10.164530508726546,-0.080409295,0.034135473,-30.46108137,11.528145790100098,17.56921962738037,0.27183504937921915,-0.83052263,-0.029028752,0.055462558708578635,-0.00616333,0.003235118,-76.375,Campus
154,9.851151134656822,0.5445145367766204,0.032966335,0.051331089151537286,0.033193794,-0.024077563,-88.44617428,64.14705248021367,-11.99351025,0.5174749138600686,0.018875600550981128,0.031634346,0.8548340744831983,-5.42E-04,-0.073679356,-1.0887656,45,0.2121601551771164,2.6565120220184326,3.5350000858306885,1.2505667209625244,301.0809631347656,161,-86.9109886,40.4277272,9.851151134656822,0.5445145367766204,0.032966335,-29.58609197,10.387662517490671,16.746775840645405,-0.0400947,-0.195937516,0.034537731,0.029798723170128855,0.049533959,-0.024064284,-72.33333333,Campus
