seconds_elapsed,magnetometerUncalibrated_z,magnetometerUncalibrated_y,magnetometerUncalibrated_x,microphone_dBFS,totalAcceleration_z,totalAcceleration_y,totalAcceleration_x,accelerometer_z,accelerometer_y,accelerometer_x,gyroscope_z,gyroscope_y,gyroscope_x,orientation_qz,orientation_qy,orientation_qx,orientation_qw,orientation_roll,orientation_pitch,orientation_yaw,magnetometer_z,magnetometer_y,magnetometer_x,location_bearingAccuracy,location_speedAccuracy,location_verticalAccuracy,location_horizontalAccuracy,location_speed,location_bearing,location_altitude,location_longitude,location_latitude,accelerometerUncalibrated_z,accelerometerUncalibrated_y,accelerometerUncalibrated_x,gyroscopeUncalibrated_z,gyroscopeUncalibrated_y,gyroscopeUncalibrated_x,class
0,-103.3702039,45.584512156824914,-36.16217693,-124.3333333,9.910591053240227,-0.247942651,0.12531049041585487,-0.004219427,-0.005240668,-0.006624166,6.884973638264809E-4,-0.002282912,5.746105571387936E-4,-0.01418955,-0.006447139,-0.012312703,0.9989174250829018,-0.013249589,0.024454257435212703,0.028757065,-43.30828333,15.646309047937393,-0.574924992,45,1.5,2.4009294509887695,12.428000450134277,0,0,167.39999389648438,-86.9131327,40.4275065,9.910544441,-0.248815574,0.12475436653882738,-0.02099658,0.012224710246516486,0.001032746,Classroom
1,-103.2636039,45.58127334594727,-36.1712912,-110.25,9.883338984,-0.249684074,0.12044841984232653,-0.014859777,-0.004536413,-0.011518509,6.695826025231957E-4,-0.001820795,3.6415894282981753E-4,-0.005522399,-0.006587712,-0.012431397,0.999885591,-0.013315654,0.024789705084493525,0.011210995484501697,-43.20349312,15.641863670349121,-0.591699995,45,1.5,2.4009294509887695,12.428000450134277,0,0,167.39999389648438,-86.9131327,40.4275065,9.883338984,-0.249684074,0.12044841984232653,-0.021015495,0.012686827793144263,8.222943808784924E-4,Classroom
2,-103.3409516,45.58346916,-36.0735693,-114.5555556,9.873718326531568,-0.246910838,0.1258148470694579,-0.00489247,-6.68E-04,-0.010084715,6.790486937479197E-4,-0.002671716,4.952014186555176E-4,-0.002566936,-0.006843871,-0.012478489,0.9998950987186247,-0.013755057,0.024921921018547226,0.00530581,-43.28132919,15.642473678588868,-0.49385599,45,1.5,2.4009294509887695,12.428000450134277,0,0,167.39999389648438,-86.9131327,40.4275065,9.873718326531568,-0.246910838,0.1258148470694579,-0.021006029,0.011835907043400899,9.533368521234364E-4,Classroom
3,-103.2481099,45.64642101287842,-36.14225525,-108.5,9.896508300188676,-0.248897113,0.12138057471189684,0.011620595617201721,-0.002411163,-0.013614916,7.264931308720441E-4,-0.001841438,3.2914585311833805E-4,-0.001233617,-0.006811346,-0.012474355,0.9998981975814671,-0.013656744,0.024931980676732017,0.002637746,-43.18787701,15.706523694992065,-0.562419991,45,1.5,2.4009294509887695,12.428000450134277,0,0,167.39999389648438,-86.9131327,40.4275065,9.896508300188676,-0.248897113,0.12138057471189684,-0.020958584,0.012666184934380563,7.87281292802609E-4,Classroom
4,-103.3042291,45.638247108459474,-36.17299961,-119.8888889,9.927222798171552,-0.241146574,0.12418865701816614,0.015051406564064396,0.002044755,-0.009071324,4.536875351829436E-4,-0.001912604,3.172847412942538E-4,-0.001466651,-0.006701462,-0.012275973,0.9999010910108251,-0.013442074,0.024532335,0.003098482,-43.24411877,15.698715705871582,-0.593285992,45,1.5,2.4009294509887695,12.428000450134277,0,0,167.39999389648438,-86.9131327,40.4275065,9.927222798171552,-0.241146574,0.12418865701816614,-0.02123139,0.012595018254394092,7.754201798482789E-4,Classroom
5,-103.2970316,45.612627296447755,-36.07625332,-119.75,9.930012556222769,-0.245100389,0.12303767467920597,0.003381859,-0.002514718,-0.010045022,4.655486447465362E-4,-0.001841438,2.8170140582200104E-4,-9.89E-04,-0.006688065,-0.012200696,0.9999026835543438,-0.013403349,0.024388218732568825,0.002140811,-43.23704319,15.67346173286438,-0.497149985,45,1.5,2.464730978012085,12.852999687194824,0.13965614140033722,112.85787200927734,167.39999389648438,-86.9131202,40.4275025,9.930012556222769,-0.245100389,0.12303767467920597,-0.021219528,0.012666184898212697,7.39836845506272E-4,Classroom
6,-103.268484,45.60518505096436,-36.0857695,-143,9.899783893696313,-0.245017488,0.12307065081538505,-0.015773477,-0.002508111,-0.010676078,3.469375231149561E-4,-0.001817715,2.6984029399791676E-4,-3.44E-04,-0.006733901,-0.012267539,0.9999019960755283,-0.013479372,0.024530516,8.527414655104931E-4,-43.2086171,15.665165624618531,-0.506665989,45,1.5,2.464730978012085,12.852999687194824,0.13965614140033722,112.85787200927734,167.39999389648438,-86.9131202,40.4275025,9.899783893696313,-0.245017488,0.12307065081538505,-0.02133814,0.012689907112818899,7.279757348124336E-4,Classroom
7,-103.2693378,45.60250118255615,-36.06319935,-137.5,9.882081448453144,-0.248557356,0.12454003008823951,-0.009045879,-0.001765492,-0.009118647,3.8252085971745474E-4,-0.001983771,2.5797918217383253E-4,1.1701106164914607E-4,-0.006769353,-0.012430112,0.9998997866528706,-0.013539025,0.024861897,-6.57E-05,-43.21008102,15.662603693008423,-0.483729991,45,1.5,2.464730978012085,12.852999687194824,0.13965614140033722,112.85787200927734,167.39999389648438,-86.9131202,40.4275025,9.882081448453144,-0.248557356,0.12454003008823951,-0.021302556,0.012523851547281719,7.161146235534722E-4,Classroom
8,-103.3054501,45.57334331512451,-36.10833931,-129.7777778,9.883080426929066,-0.247976574,0.12475201574344079,-7.47E-04,-0.002028032,-0.01040391,4.536875351829436E-4,-0.001936327,2.105347348774955E-4,6.228135036896842E-4,-0.006824405,-0.012477634,0.9998986530072481,-0.013636561,0.024963843,-0.001075533,-43.2457053,15.633689699172974,-0.528259991,45,1.5,2.464730978012085,12.852999687194824,0.13965614140033722,112.85787200927734,167.39999389648438,-86.9131202,40.4275025,9.883080426929066,-0.247976574,0.12475201574344079,-0.02123139,0.012571295949368223,6.686701762571352E-4,Classroom
9,-103.278,45.59542514801026,-36.14908718,-124.75,9.888632839165846,-0.246007723,0.12655244087709963,0.002883058,0.001289123,-0.008566247,3.0542363282830384E-4,-0.001785554,1.1747062671929598E-4,7.000074334567986E-4,-0.00684667,-0.012485022,0.9998983631913478,-0.013679169,0.024979697,-0.001229296,-43.21825493,15.655039701461792,-0.568519989,45,1.5,2.464730978012085,12.852999687194824,0.13965614140033722,112.85787200927734,167.39999389648438,-86.9131202,40.4275025,9.888632839165846,-0.246007723,0.12655244087709963,-0.021379653,0.012722069,5.756060698051722E-4,Classroom
10,-103.2949579,45.580785217285154,-36.08125534,-130.5555556,9.894185196,-0.250070293,0.12431352487900882,0.00404881,-0.003672326,-0.010849578,3.350764203328386E-4,-0.002043077,1.2750695210890574E-4,8.622679923823808E-4,-0.006842051,-0.012448412,0.9998987166626939,-0.013665918,0.024908697431527294,-0.001554501,-43.23509109,15.641131677627563,-0.501541988,45,1.5,2.464730978012085,12.852999687194824,0.13965614140033722,112.85787200927734,167.39999389648438,-86.9131202,40.4275025,9.894185196,-0.250070293,0.12431352487900882,-0.021350001,0.012464546001724247,5.856423940536683E-4,Classroom
11,-103.2595776,45.58908111572266,-36.11651325,-124.4444444,9.934572840199888,-0.239680101,0.12347139067296843,0.020523015735218825,0.004978425,-0.011592474,4.1810419971069084E-4,-0.00175841,2.105347348774955E-4,9.561682787375724E-4,-0.006821978,-0.012330226,0.9999002189312166,-0.013623577,0.024673570092152625,-0.001744442,-43.19946701,15.649549655914306,-0.536067989,45,1.5,2.464730978012085,12.852999687194824,0.13965614140033722,112.85787200927734,167.39999389648438,-86.9131202,40.4275025,9.934572840199888,-0.239680101,0.12347139067296843,-0.021266973,0.012749212757838004,6.686701739966435E-4,Classroom
12,-103.2342015,45.61287094116211,-36.13591145,-130.5,9.946786778644451,-0.243893675,0.12462714755708731,0.007757418,-0.00198687,-0.009164575,4.1810419858044504E-4,-0.001663521,1.0378472846073723E-4,6.810097553364896E-4,-0.006736617,-0.012163726,0.9999030730099354,-0.013459751,0.024336695,-0.001198357,-43.17384701,15.673339710235595,-0.557051987,45,1.5,2.464730978012085,12.852999687194824,0.13965614140033722,112.85787200927734,167.39999389648438,-86.9131202,40.4275025,9.946786778644451,-0.243893675,0.12462714755708731,-0.021266973,0.012844101598178878,5.619201709706228E-4,Classroom
13,-103.2472559,45.63727123260498,-36.10358135,-131.5555556,9.946322514460636,-0.241025115,0.12410754309250759,6.263047746084269E-4,-3.84E-04,-0.010320627,3.232152994667876E-4,-0.001829577,2.5797918217383253E-4,8.876365846818657E-4,-0.006774025,-0.012109792,0.999903314,-0.013529626,0.024231659266555194,-0.00161151,-43.18751102,15.697739686965942,-0.522769988,45,1.5,2.464730978012085,12.852999687194824,0.13965614140033722,112.85787200927734,167.39999389648438,-86.9131202,40.4275025,9.946322514460636,-0.241025115,0.12410754309250759,-0.021361862,0.012678046041683665,7.161146201627348E-4,Classroom
14,-103.2645802,45.565413093566896,-36.12395531,-138,9.943551757960643,-0.23946521,0.12655534450579614,-9.14E-04,9.085929509505485E-4,-0.007763397,3.706597535445997E-4,-0.001817715,2.3425695852566402E-4,8.756682232646181E-4,-0.006755829,-0.012058132,0.9999040689283204,-0.013493584,0.024128147265286122,-0.001588707,-43.20520119,15.625393705368042,-0.543753989,45,1.5,2.464730978012085,12.852999687194824,0.13965614140033722,112.85787200927734,167.39999389648438,-86.9131202,40.4275025,9.943551757960643,-0.23946521,0.12655534450579614,-0.021314417,0.012689907158028733,6.92392397644812E-4,Classroom
15,-103.29996,45.613237113952636,-36.09784729,-144,9.939477559432243,-0.243614899,0.12448775985287232,-0.002030947,-0.00384006,-0.010480451,5.485764263848801E-4,-0.001722827,2.4611807034974825E-4,0.001074461,-0.006793975,-0.012040124,0.9999038478703175,-0.013565125,0.02409487,-0.001985694,-43.23997108,15.673705739974976,-0.518377986,45,1.5,2.6224944591522217,13.411999702453613,0.142011359,130.89451599121094,167.59999084472656,-86.9131075,40.427494,9.939477559432243,-0.243614899,0.12448775985287232,-0.021136501,0.012784796,7.04253511729388E-4,Classroom
16,-103.28166,45.590545196533206,-36.16714333,-142.125,9.905661444062169,-0.244483168,0.1245806855194777,-0.018273702,-0.002019341,-0.010727956,5.403648896250301E-4,-0.001973507,2.9367656679823995E-4,0.00115742,-0.006832455,-0.01221482,0.9999013726527874,-0.013639793,0.024445492057846144,-0.002148343,-43.22167103,15.650525674819946,-0.586697985,45,1.5,2.6224944591522217,13.411999702453613,0.142011359,130.89451599121094,167.59999084472656,-86.9131075,40.427494,9.905661444062169,-0.244483168,0.1245806855194777,-0.021144712,0.012534116,7.5181200764536E-4,Classroom
17,-103.2870275,45.582005157470704,-36.18178337,-143.7777778,9.884474337679668,-0.24958534,0.12468232171049395,-0.010898127,-0.003197701,-0.009769384,3.11354189903195E-4,-0.001746549,1.86812511229327E-4,0.001017458,-0.006803417,-0.012439,0.9998989631828753,-0.01358478,0.024891906806710853,-0.001866034,-43.22728317,15.64210768699646,-0.60292399,45,1.5,2.6224944591522217,13.411999702453613,0.142011359,130.89451599121094,167.59999084472656,-86.9131075,40.427494,9.884474337679668,-0.24958534,0.12468232171049395,-0.021373723,0.012761073801847338,6.449479548694584E-4,Classroom
18,-103.312038,45.59481510162354,-36.09138142,-137.3333333,9.886077279026068,-0.248580588,0.12430481258237246,-5.81E-04,-7.16E-04,-0.0108073,3.70659751284108E-4,-0.001734688,1.86812511229327E-4,0.001181615,-0.006845195,-0.01252484,0.9998974163555404,-0.013664109,0.025065926093499637,-0.00219221,-43.25253719,15.654917640686035,-0.511301988,45,1.5,2.6224944591522217,13.411999702453613,0.142011359,130.89451599121094,167.59999084472656,-86.9131075,40.427494,9.886077279026068,-0.248580588,0.12430481258237246,-0.021314417,0.012772934909150439,6.44947950913598E-4,Classroom
19,-103.2989837,45.60274513244629,-36.0413612,-138.5,9.891443882173705,-0.245824775,0.12426415888719189,0.002618419,6.907967109124637E-4,-0.008306201,2.7577085330069643E-4,-0.001734688,1.7495139940524275E-4,8.834976639634776E-4,-0.006711164,-0.012456789,0.999899492,-0.013403536,0.024925518943702134,-0.001600117,-43.23911694,15.66284767150879,-0.460671985,45,1.5,2.6224944591522217,13.411999702453613,0.142011359,130.89451599121094,167.59999084472656,-86.9131075,40.427494,9.891443882173705,-0.245824775,0.12426415888719189,-0.021409306,0.012772934909150439,6.330868402197596E-4,Classroom
20,-103.315576,45.58273712158203,-36.1078516,-141.3333333,9.897842012918913,-0.248957091,0.12314408666525896,0.003741311,-0.002940392,-0.009911978,4.5368753066196026E-4,-0.001912604,2.9356251764608526E-4,0.001038554,-0.006735392,-0.012405363,0.9998998126937347,-0.01344823,0.024824793640415645,-0.001910383,-43.25595322,15.643693656921387,-0.528015989,45,1.5,2.6224944591522217,13.411999702453613,0.142011359,130.89451599121094,167.59999084472656,-86.9131075,40.427494,9.897842012918913,-0.248957091,0.12314408666525896,-0.02123139,0.012595018227268192,7.516979578954791E-4,Classroom
21,-103.2505499,45.596889114379884,-36.21594334,-140.125,9.923320094358575,-0.241242404,0.12533570196732735,0.014517645234043159,0.002742684,-0.009335928,3.4693752424520195E-4,-0.001782132,2.3425695852566402E-4,0.00118855,-0.00679931,-0.012312087,0.9999003676534857,-0.013572525,0.024640379,-0.002210106,-43.19056091,15.656991701126099,-0.63659599,45,1.5,2.6224944591522217,13.411999702453613,0.142011359,130.89451599121094,167.59999084472656,-86.9131075,40.427494,9.923320094358575,-0.241242404,0.12533570196732735,-0.02133814,0.012725490488980001,6.923923987750579E-4,Classroom
22,-103.2445717,45.58847114562988,-36.07564323,-142,9.95032954,-0.241817379,0.12415381000169272,0.013041515,-4.70E-04,-0.009375728,4.062430844958691E-4,-0.001699104,1.630902875811585E-4,9.5700429361404E-4,-0.006727211,-0.012107104,0.9999036025075079,-0.013434299,0.024227132821835362,-0.001751444,-43.18446133,15.648207693099975,-0.496539986,45,1.5,2.6224944591522217,13.411999702453613,0.142011359,130.89451599121094,167.59999084472656,-86.9131075,40.427494,9.95032954,-0.241817379,0.12415381000169272,-0.021278834,0.012808518258185641,6.212257289607982E-4,Classroom
23,-103.3049618,45.585909042358395,-36.17214516,-131.125,9.947596967,-0.240914262,0.12272218159101542,0.001141122,-0.001524536,-0.010454931,1.9274308070431925E-4,-0.001746549,1.86812511229327E-4,9.795986375889009E-4,-0.006727643,-0.012089573,0.9999037830574998,-0.013434643,0.024192383820281445,-0.001796868,-43.24497311,15.646133670806885,-0.593163988,45,1.5,2.6224944591522217,13.411999702453613,0.142011359,130.89451599121094,167.59999084472656,-86.9131075,40.427494,9.947596967,-0.240914262,0.12272218159101542,-0.021492334,0.012761074,6.449479526089667E-4,Classroom
24,-103.2762917,45.61958122253418,-36.12249115,-128.8888889,9.945146023648457,-0.238727618,0.12483042131349878,-9.33E-04,0.001770582,-0.008266699,4.1114720918882924E-4,-0.001632842,1.5271181473508477E-4,8.220622957406493E-4,-0.006683814,-0.012061559,0.9999045551969454,-0.013350816,0.024134171750539772,-0.001483169,-43.21630291,15.678951683044433,-0.542411987,45,1.5,2.6224944591522217,13.411999702453613,0.142011359,130.89451599121094,167.59999084472656,-86.9131075,40.427494,9.945146023648457,-0.238727618,0.12483042131349878,-0.02127393,0.012874780831715235,6.108472572612719E-4,Classroom
25,-103.3261903,45.56541313171387,-36.13078751,-123.8888889,9.942544066790239,-0.243321603,0.1233174839934099,-0.001759409,-0.003196044,-0.009731452,6.909097807065955E-4,-0.00186516,2.4611807034974825E-4,8.679219624434498E-4,-0.006698299,-0.012066065,0.9999043715810313,-0.01337867,0.024143812364166222,-0.001574493,-43.26632328,15.625637626647949,-0.550219987,45,1.5,2.6224944591522217,13.411999702453613,0.142011359,130.89451599121094,167.59999084472656,-86.9131075,40.427494,9.942544066790239,-0.243321603,0.1233174839934099,-0.020994167,0.012642462683606494,7.042535122945109E-4,Classroom
26,-103.3064257,45.55858112335205,-36.08906349,-115.25,9.907775471511396,-0.245763794,0.12311711382952709,-0.019214204,-0.002887229,-0.010723016,3.350764259840678E-4,-0.001782132,1.86812511229327E-4,0.001096965,-0.006752196,-0.012223897,0.9999018699220084,-0.013480698,0.024462660141650914,-0.002029249,-43.24631504,15.618805618286133,-0.508251988,45,1.5,2.6224944591522217,13.411999702453613,0.142011359,130.89451599121094,167.59999084472656,-86.9131075,40.427494,9.907775471511396,-0.245763794,0.12311711382952709,-0.021350001,0.012725490507063935,6.449479520438438E-4,Classroom
27,-103.3017896,45.61348129272461,-36.10150745,-144.7777778,9.885891469936926,-0.246684333,0.1241334828647595,-0.010610312,-6.25E-04,-0.008842186,4.655486424860445E-4,-0.001699104,6.820139298848447E-5,0.001074707,-0.006729533,-0.012422836,0.9998996003160199,-0.013435566,0.024860211837928272,-0.001982613,-43.24167904,15.67407166481018,-0.522159985,45,1.5,2.6224944591522217,13.411999702453613,0.142011359,130.89451599121094,167.59999084472656,-86.9131075,40.427494,9.885891469936926,-0.246684333,0.1241334828647595,-0.021219528,0.012808518240101707,5.263368343681241E-4,Classroom
28,-103.2944698,45.57358741760254,-36.10809536,-131.5,9.886222738,-0.249540916,0.12430598593961734,-0.001222555,-0.002130311,-0.008690017,1.8088196096851408E-4,-0.001734688,1.630902875811585E-4,0.00112397,-0.006741646,-0.012491792,0.9998985974534044,-0.013458461,0.02499883,-0.002079935,-43.23472515,15.633811683654786,-0.52691799,45,1.5,2.6224944591522217,13.411999702453613,0.142011359,130.89451599121094,167.59999084472656,-86.9131075,40.427494,9.886222738,-0.249540916,0.12430598593961734,-0.021504195,0.012772934909150439,6.212257272654294E-4,Classroom
29,-103.3069136,45.57907699584961,-36.03831131,-124.7777778,9.890049999200025,-0.248452815,0.12526891185241995,0.00139492,-0.001920094,-0.009305657,3.113541887729492E-4,-0.001770271,2.105347348774955E-4,0.001381922,-0.00680327,-0.012476615,0.9998980598542296,-0.013575324,0.024972091184802425,-0.002594612,-43.24680313,15.639911613464356,-0.457743986,45,1.5,2.6224944591522217,13.411999702453613,0.142011359,130.89451599121094,167.59999084472656,-86.9131075,40.427494,9.890049999200025,-0.248452815,0.12526891185241995,-0.021373723,0.012737351587241135,6.686701756920123E-4,Classroom
30,-103.3316795,45.571269035339355,-36.10663116,-123.75,9.894719605306976,-0.244857774,0.125759673,0.002713861,0.002102542,-0.009037796,3.9438197154153897E-4,-0.001770271,2.4611807034974825E-4,0.001511994,-0.006832547,-0.012465748,0.9998978006029592,-0.013630664,0.024952206471301978,-0.002854225,-43.27132496,15.630883674621582,-0.52606398,45,1.5,2.6224944591522217,36.16400146484375,0,0,167.59999084472656,-86.9131075,40.427494,9.894719605306976,-0.244857774,0.125759673,-0.021290695,0.012737351578199168,7.042535105991421E-4,Classroom
31,-103.2671413,45.58224918365479,-36.09662731,-128.5555556,9.903895952169178,-0.248859363,0.12527471918214872,0.006201679,-0.002734791,-0.01011015,4.6554864700702785E-4,-0.001877021,3.2914585311833805E-4,0.001623392,-0.006861832,-0.012396704,0.9998982826482903,-0.013686652,0.024815725,-0.003077275,-43.20751934,15.642351703643799,-0.516669983,45,1.5,2.6224944591522217,36.16400146484375,0,0,167.59999084472656,-86.9131075,40.427494,9.903895952169178,-0.248859363,0.12527471918214872,-0.021219528,0.012630602,7.872812916723632E-4,Classroom
32,-103.2210267,45.60335533,-36.13542351,-136.25,9.934805055266445,-0.242912152,0.12418575288311949,0.01485455,9.711118271717658E-4,-0.00990988,2.3494125679672623E-4,-0.001691577,2.4668831611052155E-4,0.001414151,-0.006776623,-0.012298445,0.9999003971998508,-0.013521624,0.024616101738781884,-0.002662147,-43.1612812,15.66333571434021,-0.55583199,45,1.5,2.6224944591522217,36.16400146484375,0,0,167.59999084472656,-86.9131075,40.427494,9.934805055266445,-0.242912152,0.12418575288311949,-0.021450136,0.012816045513878075,7.048237552785744E-4,Classroom
33,-103.2152919,45.55504299163818,-36.06197922,-140.6666667,9.949609432405639,-0.241132055,0.12721162831899033,0.009265289,1.1184290774817606E-4,-0.008393059,3.469375231149561E-4,-0.00175841,2.5797918217383253E-4,0.001565505,-0.006836191,-0.012122514,0.9999019127447628,-0.013637535,0.024266446045446165,-0.00296584,-43.15542515,15.615023641586303,-0.480679989,45,1.5,2.6224944591522217,36.16400146484375,0,0,167.59999084472656,-86.9131075,40.427494,9.949609432405639,-0.241132055,0.12721162831899033,-0.02133814,0.012749212694544237,7.161146207278576E-4,Classroom
34,-103.2342022,45.611651191711424,-36.07076317,-127,9.949231851448133,-0.240533849,0.12507434995863045,0.001073615,-9.61E-04,-0.009941385,5.129930954336108E-4,-0.001616077,2.105347348774955E-4,0.001560032,-0.006802203,-0.012031205,0.9999032529812415,-0.013569905,0.024083653,-0.002956947,-43.17445713,15.67199773788452,-0.490561987,45,1.5,2.6224944591522217,36.16400146484375,0,0,167.59999084472656,-86.9131075,40.427494,9.949231851448133,-0.240533849,0.12507434995863045,-0.021172084,0.012891546081643081,6.686701734315206E-4,Classroom
35,-103.3006923,45.586153259277346,-36.16458141,-120.125,9.945105984,-0.240887065,0.12548514197652155,-0.001848989,-1.90E-04,-0.008271654,3.706597456328788E-4,-0.001627938,1.9867362305341126E-4,0.001405174,-0.006742951,-0.012074742,0.9999033681397299,-0.013455003,0.02416846,-0.002648015,-43.24070305,15.646011695861816,-0.584257995,45,1.5,2.6224944591522217,36.16400146484375,0,0,167.59999084472656,-86.9131075,40.427494,9.945105984,-0.240887065,0.12548514197652155,-0.021314417,0.012879685,6.56809064433051E-4,Classroom
36,-103.3088655,45.59225299835205,-36.13859524,-119.3333333,9.937819379047284,-0.241216269,0.12442387351133291,-0.00455985,-0.001980335,-0.009731534,3.825208664989298E-4,-0.001592354,2.5797918217383253E-4,0.001430371,-0.006762402,-0.012022832,0.9999038148852228,-0.013493432,0.024065039,-0.002698648,-43.24875504,15.652599601745605,-0.55924799,45,1.5,2.6224944591522217,36.16400146484375,0,0,167.59999084472656,-86.9131075,40.427494,9.937819379047284,-0.241216269,0.12442387351133291,-0.021302556,0.012915268,7.161146224232264E-4,Classroom
37,-103.2970319,45.578345108032224,-36.07149536,-119.875,9.922483721983086,-0.240641294,0.12572772902192422,-0.008587967,-8.13E-04,-0.008639759,4.774097577008663E-4,-0.001699104,2.4611807034974825E-4,0.001455593,-0.006765612,-0.012081825,0.9999030539133016,-0.013499095,0.024183368455003768,-0.002748228,-43.23692078,15.638569622039794,-0.491049989,45,1.5,2.6224944591522217,36.16400146484375,0,0,167.59999084472656,-86.9131075,40.427494,9.922483721983086,-0.240641294,0.12572772902192422,-0.021207667,0.012808518276269575,7.042535100340192E-4,Classroom
38,-103.2708019,45.56077721,-36.10894939,-117.6666667,9.922109103897244,-0.243057348,0.12477815086112438,0.001680346,-0.001074894,-0.008206761,1.9274306940186083E-4,-0.001521188,1.630902875811585E-4,0.001370449,-0.006716377,-0.012147128,0.9999027159607526,-0.013402521,0.024312703,-0.002578229,-43.21032497,15.62112367630005,-0.52886999,45,1.5,2.6224944591522217,36.16400146484375,0,0,167.59999084472656,-86.9131075,40.427494,9.922109103897244,-0.243057348,0.12477815086112438,-0.021492334,0.012986435,6.212257283956753E-4,Classroom
39,-103.2083375,45.587739067077635,-36.15982342,-117.875,9.938725471496582,-0.240278305,0.12445291355975623,0.006622498,-7.68E-04,-0.009016962,4.22894261786356E-4,-0.001668083,2.1144712809473276E-4,0.001407606,-0.006740373,-0.01207771,0.9999033384598218,-0.013449772,0.024174427058404453,-0.002652901,-43.14847115,15.64759766,-0.580109988,45,1.5,2.6224944591522217,36.16400146484375,0,0,167.59999084472656,-86.9131075,40.427494,9.938725471496582,-0.240278305,0.12445291355975623,-0.021262183,0.012839539657131983,6.695825678224747E-4,Classroom
40,-103.2621399,45.56992736816406,-36.1152932,-125.2222222,9.936500965970234,-0.240257978,0.12434546841145719,-9.47E-04,-8.08E-04,-0.009381398,2.8763196964576407E-4,-0.001592354,2.6984029399791676E-4,0.001376131,-0.00674164,-0.012037867,0.9999038524998044,-0.013453164,0.024094319,-0.002590443,-43.20190708,15.629419736862182,-0.536677989,45,1.5,2.6224944591522217,36.16400146484375,0,0,167.59999084472656,-86.9131075,40.427494,9.936500965970234,-0.240257978,0.12434546841145719,-0.021397445,0.012915268314333216,7.279757348124336E-4,Classroom
41,-103.2671416,45.58993511199951,-36.14713516,-127.2222222,9.910865237411944,-0.245485018,0.12515565962756722,-0.014026642,-0.003742599,-0.008375194,4.062430844958691E-4,-0.001699104,2.2239584670157977E-4,0.001376135,-0.006740614,-0.012167468,0.9999022975708675,-0.013450802,0.024353527400678802,-0.002588733,-43.20703098,15.650647649765014,-0.566933987,45,1.5,2.6224944591522217,36.16400146484375,0,0,167.59999084472656,-86.9131075,40.427494,9.910865237411944,-0.245485018,0.12515565962756722,-0.021278834,0.012808518249143674,6.805312886463423E-4,Classroom
42,-103.2844661,45.572855148315426,-36.0603933,-130,9.887889389852875,-0.24699505,0.12510629309323226,-0.010545332,-0.002236349,-0.009018823,4.6554864361629034E-4,-0.001746549,2.2239584670157977E-4,0.001549742,-0.006791071,-0.012351027,0.9998994527511227,-0.013547044,0.024723143,-0.002932319,-43.22435528,15.631981687545776,-0.480801987,45,1.5,2.6224944591522217,36.16400146484375,0,0,167.59999084472656,-86.9131075,40.427494,9.887889389852875,-0.24699505,0.12510629309323226,-0.021219528,0.012761073801847338,6.805312897765882E-4,Classroom
43,-103.2882479,45.56602329,-36.11065735,-141.1111111,9.886360792013315,-0.24606097,0.12536722557762495,-0.001880535,-2.00E-05,-0.009765483,2.87631962864289E-4,-0.001829577,2.5797918217383253E-4,0.001742027,-0.006846428,-0.012413167,0.9998979921479827,-0.013652849,0.024850214695901547,-0.003314756,-43.22825893,15.6261257,-0.531431989,45,1.5,2.6224944591522217,36.16400146484375,0,0,167.59999084472656,-86.9131075,40.427494,9.886360792013315,-0.24606097,0.12536722557762495,-0.021397445,0.012678045996473831,7.161146229883493E-4,Classroom
44,-103.2655557,45.57919918060303,-36.07832729,-132.5,9.890305583916822,-0.249202024,0.12687477418809262,0.001317228,-0.002744167,-0.00869094,3.7065974789337046E-4,-0.001793993,1.630902875811585E-4,0.001884954,-0.006882903,-0.012457037,0.9998969215791202,-0.013722113,0.024940065587463887,-0.003599162,-43.20568909,15.63869164466858,-0.497759987,45,1.5,2.6224944591522217,36.16400146484375,0,0,167.59999084472656,-86.9131075,40.427494,9.890305583916822,-0.249202024,0.12687477418809262,-0.021314417,0.012713629372634934,6.212257295259211E-4,Classroom
45,-103.293006,45.571269035339355,-36.10504532,-137.2222222,9.894510565452205,-0.246425885,0.12684283116199438,0.002335345,2.6690598251750166E-4,-0.010292921,5.129930897823815E-4,-0.001805854,2.9356251764608526E-4,0.00209843,-0.006951196,-0.012465783,0.9998959314475939,-0.013853387,0.024960740062507612,-0.004024384,-43.23301716,15.631737699508667,-0.524233994,45,1.5,1.7506119012832642,42.43799973,0,0,167.39999389648438,-86.9131168,40.4275092,9.894510565452205,-0.246425885,0.12684283116199438,-0.021172084,0.012701768211080032,7.516979567652333E-4,Classroom
46,-103.2983739,45.56907287597656,-36.11077938,-146.25,9.900295164978619,-0.247866225,0.12705191253747755,0.004398883,-0.001942852,-0.009097121,3.706597490236163E-4,-0.001770271,2.105347348774955E-4,0.002009455,-0.006921209,-0.012391662,0.9998972421710931,-0.01379588,0.024811145,-0.003848161,-43.2382629,15.629297637939453,-0.530211987,45,1.5,1.7506119012832642,42.43799973,0,0,167.39999389648438,-86.9131168,40.4275092,9.900295164978619,-0.247866225,0.12705191253747755,-0.021314417,0.012737352,6.686701751268893E-4,Classroom
47,-103.3175275,45.60018329620361,-36.11029118,-148.6666667,9.940453242329719,-0.241085593,0.1258177511321688,0.02044388,0.00213083,-0.009984368,3.289177637690535E-4,-0.001632842,1.2921768939122558E-4,0.001772656,-0.00683934,-0.012257113,0.9998999111927472,-0.01363838,0.024538487912370607,-0.003378319,-43.25753914,15.660041704177857,-0.529845985,45,1.5,1.7506119012832642,42.43799973,0,0,167.39999389648438,-86.9131168,40.4275092,9.940453242329719,-0.241085593,0.1258177511321688,-0.021356159,0.012874780831715235,5.873531307980346E-4,Classroom
48,-103.2642136,45.57456325531006,-36.02952709,-132,9.952992457787968,-0.238655018,0.12628818455251675,0.007333191,0.00154113,-0.009133884,3.706597467631246E-4,-0.001675382,2.3425695852566402E-4,0.001732747,-0.006826237,-0.012064203,0.9999024156227853,-0.013613723,0.024152064478947122,-0.003301418,-43.20446922,15.635031681060791,-0.450423988,45,1.5,1.7506119012832642,42.43799973,0,0,167.39999389648438,-86.9131168,40.4275092,9.952992457787968,-0.238655018,0.12628818455251675,-0.021314417,0.012832240490875776,6.923923987750579E-4,Classroom
49,-103.2873934,45.55333522796631,-36.11029152,-125.6666667,9.949699411114443,-0.241811571,0.12537635653053672,-5.83E-04,-0.002547478,-0.009103605,3.587986338087945E-4,-0.001604215,3.2914585311833805E-4,0.001582543,-0.006774102,-0.012011884,0.999903652,-0.013513191,0.024045214726074227,-0.003002912,-43.22764915,15.61307168006897,-0.530333984,45,1.5,1.7506119012832642,42.43799973,0,0,167.39999389648438,-86.9131168,40.4275092,9.949699411114443,-0.241811571,0.12537635653053672,-0.021326278,0.012903407170862248,7.872812922374861E-4,Classroom
50,-103.211144,45.58529899597168,-36.13212917,-130,9.945921416,-0.239857237,0.12615750809606996,-0.001474732,-0.00105261,-0.009354433,4.062430822353774E-4,-0.001829577,4.1217363588692786E-4,0.001739873,-0.006829022,-0.011989975,0.9999032761286764,-0.013619339,0.024003706366113087,-0.00331661,-43.1509111,15.645523681640626,-0.550707983,45,1.5,1.7506119012832642,42.43799973,0,0,167.39999389648438,-86.9131168,40.4275092,9.945921416,-0.239857237,0.12615750809606996,-0.021278834,0.012678046023599732,8.703090699199695E-4,Classroom
51,-103.3369257,45.580053176879886,-36.08284122,-128,9.934775398327755,-0.244065032,0.12663841290542713,-0.005106713,-0.004087665,-0.008825366,3.8252085745696303E-4,-0.001746549,3.8845141223875935E-4,0.001732089,-0.006826144,-0.012029829,0.9999028293831834,-0.013613646,0.024083302,-0.003300567,-43.27693722,15.640399723052978,-0.502639988,45,1.5,1.7506119012832642,42.43799973,0,0,167.39999389648438,-86.9131168,40.4275092,9.934775398327755,-0.244065032,0.12663841290542713,-0.021302556,0.012761073819931272,8.465868462718011E-4,Classroom
52,-103.313258,45.59664516448974,-36.04892548,-133.5555556,9.938406092449299,-0.242023557,0.12425254299802688,4.8769793464142143E-4,-0.002220246,-0.010132688,4.2996530475330005E-4,-0.00165166,2.5797918217383253E-4,0.001598937,-0.006779546,-0.012080448,0.9999027547327061,-0.013523505,0.024182598404947995,-0.003034653,-43.25278107,15.656137657165527,-0.469699986,45,1.5,1.7506119012832642,42.43799973,0,0,167.39999389648438,-86.9131168,40.4275092,9.938406092449299,-0.242023557,0.12425254299802688,-0.021255112,0.012855962741649846,7.161146190324889E-4,Classroom
53,-103.3052059,45.57895508,-36.07003117,-129.625,9.938185349,-0.240780683,0.1262330099650957,4.2169996835653064E-4,1.747687754121799E-4,-0.008056877,4.062430822353774E-4,-0.001604215,2.9356251764608526E-4,0.00156364,-0.006767118,-0.012112317,0.9999025134206976,-0.013499408,0.024245816,-0.002963916,-43.24533905,15.639789657592774,-0.489463986,45,1.5,1.7506119012832642,42.43799973,0,0,167.39999389648438,-86.9131168,40.4275092,9.938185349,-0.240780683,0.1262330099650957,-0.021278834,0.012903407197988149,7.516979539396187E-4,Classroom
54,-103.2706799,45.55431114196777,-36.1542115,-131.2222222,9.932121813875957,-0.243298373,0.1253182790377765,-0.002828228,-0.002816949,-0.009335937,4.892708695249505E-4,-0.00175841,3.0542362947016954E-4,0.001635206,-0.006792192,-0.012078327,0.9999026442037046,-0.013547932,0.024178873602915735,-0.00310693,-43.21056911,15.615023651123046,-0.574375992,45,1.5,1.7506119012832642,42.43799973,0,0,167.39999389648438,-86.9131168,40.4275092,9.932121813875957,-0.243298373,0.1253182790377765,-0.021195806,0.012749212703586203,7.635590691544404E-4,Classroom
55,-103.2838558,45.61079734802246,-36.05148731,-128.375,9.934427576157653,-0.240092454,0.1243570837581042,6.084167040311373E-4,-6.83E-04,-0.009515831,5.756060776408189E-4,-0.001703324,3.1717069214209914E-4,0.001563424,-0.006767276,-0.012053232,0.9999032232623833,-0.013499886,0.024127641549477212,-0.002964276,-43.22362282,15.67077766418457,-0.471041988,45,1.5,1.7506119012832642,42.43799973,0,0,167.39999389648438,-86.9131168,40.4275092,9.934427576157653,-0.240092454,0.1243570837581042,-0.021109471,0.012804298,7.753061296310849E-4,Classroom
56,-103.3252137,45.54747905731201,-36.00756718,-126.8888889,9.904221108816202,-0.241971285,0.1243570837581042,-0.016667496,-0.001502119,-0.009925903,4.892708672644589E-4,-0.001817715,3.172847412942538E-4,0.001613351,-0.006784453,-0.012106814,0.9999023704852873,-0.013532885,0.024235544,-0.003063008,-43.26473717,15.607215623855591,-0.428097986,0,1.5,1.9160175323486328,13.642999649047852,0.041671388,0,167.39999389648438,-86.9131177,40.427502,9.904221108816202,-0.241971285,0.1243570837581042,-0.021195806,0.012689907158028733,7.754201787180331E-4,Classroom
57,-103.3000816,45.581395111083985,-36.07625332,-128.75,9.883684491648257,-0.248923248,0.12694446814870372,-0.0102731,-0.004895802,-0.008925491,4.5368752840146856E-4,-0.001900743,3.8845141223875935E-4,0.001908972,-0.006886556,-0.012315925,0.9998986107631794,-0.013729293,0.024658153846281245,-0.003649045,-43.24021511,15.64210765838623,-0.496295991,0,1.5,1.9160175323486328,13.642999649047852,0.041671388,0,167.39999389648438,-86.9131177,40.427502,9.883684491648257,-0.248923248,0.12694446814870372,-0.02123139,0.012606879352655226,8.465868502276615E-4,Classroom
58,-103.3124038,45.54345306396485,-36.06405319,-126.1111111,9.885118291928219,-0.247461577,0.1253557221677441,-2.87E-04,-0.002417622,-0.009984233,4.181041929292158E-4,-0.001687243,2.6984029399791676E-4,0.00183526,-0.006860588,-0.012388909,0.9998980239757056,-0.01367894,0.024803022429057697,-0.00350124,-43.25229321,15.603433685302734,-0.483973982,0,1.5,1.9160175323486328,13.642999649047852,0.041671388,0,167.39999389648438,-86.9131177,40.427502,9.885118291928219,-0.247461577,0.1253557221677441,-0.021266973,0.012820379383572675,7.279757342473107E-4,Classroom
59,-103.2981294,45.56163116455078,-36.07613159,-121.75,9.890119672978965,-0.247032803,0.125881637,0.002161813,-8.62E-07,-0.008241684,1.3195487243367485E-4,-9.86E-04,8.302778276858978E-5,0.001639017,-0.006791984,-0.012463594,0.9998978856697823,-0.013546366,0.024949533955275435,-0.003109371,-43.23862919,15.621123666763305,-0.496051985,0,1.5,1.9160175323486328,13.642999649047852,0.041671388,0,167.39999389648438,-86.9131177,40.427502,9.890119672978965,-0.247032803,0.125881637,-0.021361862,0.012820379383572675,6.686701756920123E-4,Classroom
60,-103.2394479,45.546990928649905,-36.07771725,-126.7777778,9.894254980735408,-0.247369655,0.12646822718161982,0.00232466,1.401857843676817E-4,-0.001967797,5.485764388175844E-5,-1.73E-04,-1.19E-04,7.880807450737406E-4,-0.006495746,-0.0124941,0.9999005198478699,-0.012974921,0.024998573061910646,-0.001414129,-43.17970325,15.606361627578735,-0.497271988,0,1.5,1.9160175323486328,13.642999649047852,0.041671388,0,167.39999389648438,-86.9131177,40.427502,9.894254980735408,-0.247369655,0.12646822718161982,-0.021172084,0.012654323827077462,6.449479548694584E-4,Classroom
61,-103.2689716,45.58285923004151,-36.08113304,-139.7777778,9.921725930519475,-0.243533588,0.12462424334970493,0.01651025,0.002169608,-7.55E-04,-2.65E-04,1.2305903234925952E-4,-1.66E-04,3.6372585529834486E-4,-0.006348224,-0.012431953,0.9999024723340006,-0.012690411,0.024868696132331218,-5.70E-04,-43.20898308,15.642473621368408,-0.501053991,0,1.5,1.9160175323486328,13.642999649047852,0.041671388,0,167.39999389648438,-86.9131177,40.427502,9.921725930519475,-0.243533588,0.12462424334970493,-0.021492334,0.012950851645284487,5.975035047475068E-4,Classroom
62,-103.2461579,45.55845913,-36.05270741,-136.25,9.950875513761947,-0.239532001,0.12544605012946916,0.013592142325181227,0.003766328,8.45599346435987E-4,-8.22E-05,4.698824565051697E-5,-1.88E-04,1.2932949787151178E-4,-0.006267118,-0.012229612,0.9999055598790829,-0.012533967,0.024460978985119324,-1.05E-04,-43.18580322,15.617707643508911,-0.472261991,0,1.5,1.9160175323486328,13.642999649047852,0.041671388,0,167.39999389648438,-86.9131177,40.427502,9.950875513761947,-0.239532001,0.12544605012946916,-0.021309171,0.012874780831715235,5.756060692454831E-4,Classroom
63,-103.2294434,45.54211109161377,-36.0650293,-138.7777778,9.949612302687562,-0.241326618,0.1266163267122889,0.001291803,1.842964042737646E-4,0.001678838,-1.35E-04,2.7725348606235484E-4,-1.66E-04,1.6148033331623947E-4,-0.006278535,-0.012136749,0.9999066151461555,-0.012556009,0.024275652,-1.71E-04,-43.16945522,15.601603651046753,-0.485437985,0,1.5,1.9160175323486328,13.642999649047852,0.041671388,0,167.39999389648438,-86.9131177,40.427502,9.949612302687562,-0.241326618,0.1266163267122889,-0.021361862,0.013105046103518564,5.975035047475068E-4,Classroom
64,-103.2778778,45.55650711,-36.12188133,-134.5,9.936135042060926,-0.241953862,0.12559995756855288,-0.007330996,3.99120947689686E-4,8.312882584275551E-4,-2.65E-04,1.5864236386565185E-4,-2.25E-04,1.479473809085991E-4,-0.006273707,-0.012184942,0.9999060607650905,-0.012546686,0.024371870097170754,-1.43E-04,-43.21837719,15.61697566986084,-0.542655988,0,1.5,1.9160175323486328,13.642999649047852,0.041671388,0,167.39999389648438,-86.9131177,40.427502,9.936135042060926,-0.241953862,0.12559995756855288,-0.021492334,0.012986434985277722,5.381979444968397E-4,Classroom
65,-103.2410335,45.557483253479006,-36.05209717,-138.6666667,9.937317079710729,-0.240469963,0.12605006414131054,0.001258248,0.0023059,0.001582801,-1.35E-04,1.5864236612614353E-4,-1.78E-04,1.1564343446714048E-4,-0.006262384,-0.012215259,0.9999057685287254,-0.012524828,0.024432099,-7.83E-05,-43.18116718,15.618073654174804,-0.472749987,0,1.5,1.9160175323486328,13.642999649047852,0.041671388,0,167.39999389648438,-86.9131177,40.427502,9.937317079710729,-0.240469963,0.12605006414131054,-0.021361862,0.012986435003361656,5.856423934885454E-4,Classroom
66,-103.2654342,45.562363128662106,-36.06515121,-123.25,9.926607480415932,-0.246526879,0.12608047044621065,-0.007882285,-0.002360295,0.001590279,-1.23E-04,1.3492014530358962E-4,-1.78E-04,1.1394714329209545E-4,-0.006261638,-0.012281465,0.999904959,-0.012523386,0.024564501,-7.41E-05,-43.20556705,15.622099714279175,-0.484217986,0,1.5,1.6276533603668213,13.378999710083008,0.018972827,0,167.39999389648438,-86.9131155,40.4275016,9.926607480415932,-0.246526879,0.12608047044621065,-0.021350001,0.012962713,5.856423940536683E-4,Classroom
67,-103.3060596,45.563948974609374,-36.07552116,-126.6666667,9.89502155,-0.246437501,0.12681379219860706,-0.014948086,8.005167095406541E-4,9.946122186855204E-4,-1.94E-04,5.189236140475401E-5,-1.30E-04,3.5266471756576986E-4,-0.006344257,-0.012480475,0.9999019202676792,-0.012682749,0.024965576,-5.47E-04,-43.24607124,15.624051637649536,-0.495563984,0,1.5,1.6276533603668213,13.378999710083008,0.018972827,0,167.39999389648438,-86.9131155,40.4275016,9.89502155,-0.246437501,0.12681379219860706,-0.021421167,0.012879684965298014,6.330868396546367E-4,Classroom
68,-103.3431481,45.56102108001709,-36.01427727,-123.6666667,9.890746978,-0.247355136,0.12620687513675505,-0.003171097,0.001129242,2.0308626218906885E-4,-1.11E-04,1.6309026497624162E-5,-1.54E-04,4.5754305268999514E-4,-0.006380595,-0.012542475,0.999900875,-0.012752807,0.025090939,-7.55E-04,-43.28340324,15.620879688262939,-0.434563991,0,1.5,1.6276533603668213,13.378999710083008,0.018972827,0,167.39999389648438,-86.9131155,40.4275016,9.890746978,-0.247355136,0.12620687513675505,-0.02133814,0.012844101607220845,6.093646177018369E-4,Classroom
69,-103.309476,45.585543174743655,-36.03648132,-124.25,9.894185232884675,-0.247601968,0.12427287049663877,0.001272637,-8.53E-05,-6.48E-04,-2.06E-04,1.4678125656255095E-4,-2.02E-04,2.4094180861035605E-4,-0.006305291,-0.012517922,0.9999017304587132,-0.012607597,0.025039045990092084,-3.24E-04,-43.24973118,15.645279664993286,-0.456523986,0,1.5,1.6276533603668213,13.378999710083008,0.018972827,0,167.39999389648438,-86.9131155,40.4275016,9.894185232884675,-0.247601968,0.12427287049663877,-0.021433028,0.012974573868932655,5.619201726659916E-4,Classroom
70,-103.3097202,45.53784111022949,-36.04111732,-116.3333333,9.898459888199001,-0.246768547,0.12604425594355295,0.001919416,0.001250881,0.00172556,-2.23E-04,4.6988246769895064E-5,-1.17E-04,1.8298131850804985E-4,-0.006285111,-0.012522064,0.9999018219801096,-0.012568678,0.025046593205143627,-2.09E-04,-43.24973118,15.597699680328368,-0.461159986,0,1.5,1.6276533603668213,13.378999710083008,0.018972827,0,167.39999389648438,-86.9131155,40.4275016,9.898459888199001,-0.246768547,0.12604425594355295,-0.021450136,0.012874780867535334,6.460884441576826E-4,Classroom
71,-103.2867842,45.56675525665283,-36.03940918,-121.125,9.920468487785858,-0.244587709,0.12309097787998255,0.013942274075109982,0.002486097,-7.45E-04,6.671875570584269E-5,4.4479107176794585E-6,-8.30E-05,8.261506886132011E-5,-0.006250305,-0.012469673,0.9999027049657211,-0.012501545,0.024940543,-9.34E-06,-43.22703926,15.627467651367187,-0.459329988,0,1.5,1.6276533603668213,13.378999710083008,0.018972827,0,167.39999389648438,-86.9131155,40.4275016,9.920468487785858,-0.244587709,0.12309097787998255,-0.021160223,0.012832240518001676,6.805312869509737E-4,Classroom
72,-103.2668975,45.566633224487305,-36.10894936,-108.1111111,9.954299232334767,-0.23966558,0.1246242439283908,0.015625999969186136,0.003261222,8.62550171254908E-4,-4.45E-06,6.375346870785489E-5,-9.49E-05,3.3162106500666712E-6,-0.006223245,-0.012222545,0.9999059317181411,-0.012449282,0.02444527,1.4553866444613466E-4,-43.20678703,15.626735706329345,-0.529723991,0,1.5,1.6276533603668213,13.378999710083008,0.018972827,0,167.39999389648438,-86.9131155,40.4275016,9.954299232334767,-0.23966558,0.1246242439283908,-0.02123139,0.012891546045475214,6.686701762571352E-4,Classroom
73,-103.2869057,45.56529109954834,-36.08040142,-122.125,9.954865492663338,-0.240644198,0.12406669296685932,0.002363659,6.785956979955284E-4,4.35656352529248E-4,-1.82E-04,1.1119791543906898E-4,-2.14E-04,-3.90E-05,-0.006208711,-0.012125151,0.9999072048270586,-0.012421191,0.024249950297249172,2.2862888049398288E-4,-43.22740505,15.625149688720704,-0.500199991,0,1.5,1.6276533603668213,13.378999710083008,0.018972827,0,167.39999389648438,-86.9131155,40.4275016,9.954865492663338,-0.240644198,0.12406669296685932,-0.021409306,0.012938990519897452,5.500590574511698E-4,Classroom
74,-103.3139897,45.548820991516116,-36.05709934,-111.6666667,9.952848131840046,-0.238583399,0.12482078846257466,-5.87E-04,0.002340955,0.001440666,-1.47E-04,2.060868117271118E-4,-2.49E-04,-9.03E-05,-0.006190852,-0.012112027,0.9999074675504444,-0.012386698,0.024223073231942446,3.3072473032236694E-4,-43.25448906,15.60880166053772,-0.476653984,0,1.5,1.6276533603668213,13.378999710083008,0.018972827,0,167.39999389648438,-86.9131155,40.4275016,9.952848131840046,-0.238583399,0.12482078846257466,-0.021373723,0.013033879423532093,5.144757231091628E-4,Classroom
75,-103.2488419,45.56272914886475,-36.07064121,-109.2222222,9.948860168457031,-0.2417593,0.12690671786521246,-0.001821777,1.8373999780821567E-4,0.002232115,7.413209583248618E-6,1.3492013456625412E-4,-1.42E-04,1.1249673263660263E-4,-0.006261439,-0.012150368,0.9999065555415108,-0.012523002,0.024302282397752825,-7.28E-05,-43.18897507,15.622831649780274,-0.491171989,0,1.5,1.6276533603668213,13.378999710083008,0.018972827,0,167.39999389648438,-86.9131155,40.4275016,9.948860168457031,-0.2417593,0.12690671786521246,-0.021219529,0.012962712734503654,6.212257272654294E-4,Classroom
76,-103.3097197,45.53052101135254,-36.01610741,-122,9.933983339846712,-0.241442773,0.12604135253186366,-0.010023089,5.267411470413208E-4,0.001181839,-4.45E-06,7.561458279243082E-5,-1.07E-04,1.910924194322716E-4,-0.006288814,-0.012152678,0.9999063495293404,-0.012575852,0.024307889,-2.29E-04,-43.2494873,15.590135669708252,-0.436637988,0,1.5,1.6276533603668213,13.378999710083008,0.018972827,0,167.39999389648438,-86.9131155,40.4275016,9.933983339846712,-0.241442773,0.12604135253186366,-0.02123139,0.012903407161820282,6.568090627376822E-4,Classroom
77,-103.2987399,45.536255073547366,-36.09296738,-117.5555556,9.895950854403301,-0.24785461,0.123285541,-0.017773499,-0.002210324,-8.87E-04,3.113542531969622E-5,7.561458561804543E-5,-2.14E-04,8.58749337205101E-5,-0.006251652,-0.01237474,0.9999038669669512,-0.012504128,0.024750713041974504,-1.70E-05,-43.23923908,15.597089672088623,-0.511667992,0,1.5,1.6276533603668213,13.378999710083008,0.018972827,0,167.39999389648438,-86.9131155,40.4275016,9.895950854403301,-0.24785461,0.123285541,-0.021195806,0.012903407188946182,5.500590597116615E-4,Classroom
78,-103.2984957,45.51270912,-36.06051537,-119.75,9.889957057619558,-0.247279634,0.12481880593068391,-0.004803107,7.579087351377194E-4,0.001151275,-1.64E-04,1.2921768659278034E-4,-2.11E-04,8.229772768782066E-5,-0.006250023,-0.012546549,0.9999017457549388,-0.012501016,0.025094302,-7.75E-06,-43.23838531,15.572445678710938,-0.479703988,0,1.5,1.6276533603668213,13.378999710083008,0.018972827,0,167.39999389648438,-86.9131155,40.4275016,9.889957057619558,-0.247279634,0.12481880593068391,-0.0213914,0.01295701,5.52111944461313E-4,Classroom
79,-103.2925177,45.52259109,-36.0954073,-117.2222222,9.895068058,-0.247215748,0.12316357626498324,0.001799963,8.849840141037135E-4,5.091142307207423E-4,-1.35E-04,8.747569292114632E-5,-1.07E-04,-7.04E-05,-0.006196904,-0.012537902,0.9999021760468344,-0.012398583,0.025075121068404715,2.963173920139101E-4,-43.23252911,15.582815647125244,-0.515937986,0,1.5,1.6276533603668213,13.378999710083008,0.018972827,0,167.39999389648438,-86.9131155,40.4275016,9.895068058,-0.247215748,0.12316357626498324,-0.021361862,0.012915268,6.56809063867928E-4,Classroom
80,-103.2612859,45.51893108,-36.10553329,-122.125,9.899040666598719,-0.246864376,0.12352656515188587,0.001918895,6.829915405477134E-4,4.3935589130642347E-4,-1.59E-04,-7.41E-06,-1.07E-04,-1.48E-05,-0.006216323,-0.012504881,0.9999024792782312,-0.012436019,0.025009753833552008,1.85157368473461E-4,-43.20129719,15.578667707443238,-0.525453993,0,1.5,1.6276533603668213,13.378999710083008,0.018972827,0,167.39999389648438,-86.9131155,40.4275016,9.899040666598719,-0.246864376,0.12352656515188587,-0.021385584,0.012820379410698576,6.56809064433051E-4,Classroom
81,-103.337292,45.539061050415036,-36.06478561,-111.3333333,9.911292974765484,-0.245658331,0.12310669886378142,0.008353085,0.001502134,-1.79E-04,-2.18E-04,5.189235292791018E-5,-9.49E-05,-5.46E-05,-0.006202522,-0.01247963,0.9999028750993673,-0.012409394,0.024958765640565494,2.641478637856071E-4,-43.27730309,15.598675661087036,-0.485437988,45,1.5,1.6276533603668213,36.03499984741211,0,0,167.39999389648438,-86.9131155,40.4275016,9.911292974765484,-0.245658331,0.12310669886378142,-0.02144489,0.012879684938172114,6.686701739966435E-4,Classroom
82,-103.2651902,45.53332706451416,-36.13322727,-119.75,9.947907726,-0.241152383,0.12491463508131434,0.016340719,0.003067505,0.002412203,-9.93E-05,1.1119791656931483E-4,-1.07E-04,-1.31E-04,-0.006176141,-0.012297311,0.999905288,-0.012358404,0.024593163227427352,4.1498707946078145E-4,-43.20483513,15.593185634613038,-0.553269988,45,1.5,1.6276533603668213,36.03499984741211,0,0,167.39999389648438,-86.9131155,40.4275016,9.947907726,-0.241152383,0.12491463508131434,-0.021326278,0.012938990510855486,6.568090610423134E-4,Classroom
83,-103.2771455,45.59042316436768,-36.08149944,-128.7777778,9.940357402690406,-0.241672182,0.1235991629582007,7.432178386206766E-4,0.002136758,7.366163348688663E-4,-5.19E-05,2.060868117271118E-4,-2.73E-04,-1.23E-04,-0.00617936,-0.012226025,0.9999061458319136,-0.012364577,0.024450687,3.965146317515744E-4,-43.21715721,15.650525751113891,-0.501663989,45,1.5,1.6276533603668213,36.03499984741211,0,0,167.39999389648438,-86.9131155,40.4275016,9.940357402690406,-0.241672182,0.1235991629582007,-0.021278834,0.013033879441616027,4.907534994609943E-4,Classroom
84,-103.2937383,45.50904911,-36.02818554,-141.25,9.953126018487135,-0.241553122,0.12244631053463927,0.004510528,-7.30E-05,-5.83E-05,-1.59E-04,-7.41E-06,-8.30E-05,-1.62E-04,-0.006165607,-0.012171245,0.9999068946514315,-0.012337986,0.024340632814660812,4.7508969633711177E-4,-43.23387119,15.569273633956909,-0.449203987,45,1.5,1.6276533603668213,36.03499984741211,0,0,167.39999389648438,-86.9131155,40.4275016,9.953126018487135,-0.241553122,0.12244631053463927,-0.021385584,0.012820379365488742,6.805312886463423E-4,Classroom
85,-103.2888581,45.548821182250975,-36.07271538,-141.5555556,9.943914783811106,-0.241184326,0.12257698648473592,-0.002958124,5.733200277273471E-4,7.219326037627E-5,-4.70E-05,-6.16E-12,-8.22E-05,-2.11E-04,-0.006148785,-0.012155253,0.9999071852518961,-0.012305503,0.024308064,5.712736236511354E-4,-43.22850323,15.608801717758178,-0.492147984,45,1.5,1.6276533603668213,36.03499984741211,0,0,167.39999389648438,-86.9131155,40.4275016,9.943914783811106,-0.241184326,0.12257698648473592,-0.02127393,0.012827792598937567,6.813296304944043E-4,Classroom
86,-103.2731198,45.538695068359374,-36.0268433,-143.5,9.942059211360599,-0.239154493,0.1249088269558925,-0.001178343,0.002174433,0.002289223,-1.11E-04,1.7050347681998193E-4,-1.78E-04,-1.78E-04,-0.006160418,-0.012136326,0.9999073529706418,-0.01232795,0.024270605,5.047413162650875E-4,-43.21325321,15.598919639587402,-0.446763991,45,1.5,1.6276533603668213,36.03499984741211,0,0,167.39999389648438,-86.9131155,40.4275016,9.942059211360599,-0.239154493,0.1249088269558925,-0.02133814,0.012998296083538856,5.856423934885454E-4,Classroom
87,-103.3016673,45.531497116088865,-36.1237114,-111.1111111,9.938350807115869,-0.24338549,0.12342492845451948,-0.003765384,-0.001211819,8.255542047972818E-4,-1.59E-04,3.0097570462441707E-4,-1.42E-04,-1.72E-04,-0.006162286,-0.012178902,0.9999068240517551,-0.012331586,0.024355829611999318,4.941033219491376E-4,-43.2415572,15.591233625411988,-0.543631991,45,1.5,1.6276533603668213,36.03499984741211,0,0,167.39999389648438,-86.9131155,40.4275016,9.938350807115869,-0.24338549,0.12342492845451948,-0.021385584,0.013128768345250667,6.212257261351835E-4,Classroom
88,-103.3066698,45.534425048828126,-36.03709133,-96.625,9.933997830140937,-0.241349849,0.12433965996052455,-5.43E-04,0.001496827,0.001998144,4.299654222988677E-5,1.2305902500266155E-4,-2.25E-04,-1.98E-04,-0.006153252,-0.012221652,0.9999063454785393,-0.012314176,0.024441026711782204,5.458137369432116E-4,-43.24668137,15.595015678405762,-0.457987988,45,1.5,1.6276533603668213,36.03499984741211,0,0,167.39999389648438,-86.9131155,40.4275016,9.933997830140937,-0.241349849,0.12433965996052455,-0.021183945,0.012950851654326453,5.381979461922084E-4,Classroom
89,-103.2800739,45.52002918243408,-36.12395542,-89,9.939233193030724,-0.239532475,0.1217089684572644,0.002229672,0.003247099,-0.001643167,1.9274326493439166E-5,1.230590266980303E-4,-2.14E-04,-1.72E-04,-0.006162063,-0.012213947,0.9999063709407177,-0.012331179,0.024425949394992253,4.954208173869331E-4,-43.22020721,15.579399681091308,-0.543753988,45,1.5,1.6276533603668213,36.03499984741211,0,0,167.39999389648438,-86.9131155,40.4275016,9.939233193030724,-0.239532475,0.1217089684572644,-0.021207668,0.012950851645284487,5.500590580162927E-4,Classroom
90,-103.2884916,45.52295711517334,-36.10321526,-75.375,9.940874414536559,-0.240940397,0.12697350722059464,5.508348779770934E-4,0.001323397,0.004282076,-7.56E-05,1.3492013739186873E-4,-2.02E-04,-3.19E-05,-0.00621109,-0.01217575,0.999906558,-0.012425809,0.024351261,2.1505387866172277E-4,-43.22862534,15.582937688827515,-0.523989988,45,1.5,1.6276533603668213,36.03499984741211,0,0,167.39999389648438,-86.9131155,40.4275016,9.940874414536559,-0.240940397,0.12697350722059464,-0.021302556,0.012962712761629554,5.61920169275254E-4,Classroom
91,-103.2623841,45.52271282196045,-36.09796936,-75.44444444,9.93407917,-0.243725248,0.12302999617983994,-0.0049437,-0.001863931,-0.001001264,7.857987261603325E-5,-7.86E-05,2.3722223648168508E-5,-1.17E-05,-0.006218163,-0.012154501,0.9999067852798017,-0.012439445,0.024308992,1.7458028265731257E-4,-43.20202919,15.582815656661987,-0.519231982,45,1.5,1.6276533603668213,36.03499984741211,0,0,167.39999389648438,-86.9131155,40.4275016,9.93407917,-0.243725248,0.12302999617983994,-0.021148362,0.012749212721670136,7.872812911072402E-4,Classroom
92,-103.2651899,45.49379905700684,-36.04306919,-102.875,9.896647722,-0.247041515,0.12558253456666632,-0.018186662,-0.002044743,0.001426931,1.1416320752316308E-4,2.8170134365847966E-5,-1.07E-04,1.6557479572357553E-4,-0.006279429,-0.012363668,0.9999038235655109,-0.012557729,0.024729566,-1.76E-04,-43.20507938,15.55341365814209,-0.462867989,45,1.5,1.6276533603668213,36.03499984741211,0,0,167.39999389648438,-86.9131155,40.4275016,9.896647722,-0.247041515,0.12558253456666632,-0.021112778,0.012855963,6.568090627376822E-4,Classroom
93,-103.3066699,45.52734878540039,-36.03086906,-95.66666667,9.885752067,-0.245409517,0.12315776864591155,-0.006533293,0.001682391,-0.001127735,-1.17E-05,-7.05E-05,-1.53E-04,1.696773202855166E-4,-0.006280545,-0.012495722,0.999902165,-0.012559874,0.024993757896411877,-1.82E-04,-43.24643719,15.586841650009156,-0.450301989,45,1.5,1.6276533603668213,36.03499984741211,0,0,167.39999389648438,-86.9131155,40.4275016,9.885752067,-0.245409517,0.12315776864591155,-0.021238689,0.01275731,6.108472544628268E-4,Classroom
94,-103.2637261,45.51710117340088,-36.0407513,-96.125,9.890793429995046,-0.245336919,0.12355850853966278,0.001486001,0.001686859,7.92372356919409E-4,-1.35E-04,4.447909022310694E-6,-1.90E-04,-4.99E-05,-0.00620414,-0.012488193,0.999902759,-0.012412513,0.024975944,2.5487456950615517E-4,-43.20385914,15.577569694519044,-0.460427989,45,1.5,1.6276533603668213,36.03499984741211,0,0,167.39999389648438,-86.9131155,40.4275016,9.890793429995046,-0.245336919,0.12355850853966278,-0.021361862,0.012832241,5.737812794039695E-4,Classroom
95,-103.2660436,45.52551895141602,-36.01976742,-87.22222222,9.896511281578286,-0.247680374,0.12350042947360033,0.003011194,-3.94E-04,6.873550490268226E-4,-9.93E-05,1.6309019716149106E-5,-2.02E-04,-4.89E-05,-0.006204477,-0.012495188,0.9999026592495373,-0.012413166,0.024989957821745318,2.5295250123112125E-4,-43.20593327,15.585865659713745,-0.440785986,45,1.5,1.6276533603668213,36.03499984741211,0,0,167.39999389648438,-86.9131155,40.4275016,9.896511281578286,-0.247680374,0.12350042947360033,-0.021326279,0.012844101589136911,5.619201704054999E-4,Classroom
96,-103.3138682,45.531375045776365,-36.03404152,-72.11111111,9.907081529932114,-0.244802599,0.12130797719492496,0.007116281,0.00176093,-0.001421149,-1.23E-04,4.447911847925302E-6,-1.07E-04,-7.27E-05,-0.006196279,-0.012451655,0.9999032605041578,-0.012397343,0.024902586092792667,2.998723051643661E-4,-43.25351326,15.591477594375611,-0.453961987,45,1.5,1.8333449363708496,43.066001892089844,0,0,167.39999389648438,-86.9131117,40.4274997,9.907081529932114,-0.244802599,0.12130797719492496,-0.021350001,0.012832240499917743,6.568090649981739E-4,Classroom
97,-103.2416437,45.55797107696533,-36.17116932,-82.125,9.947355004457327,-0.239828702,0.12549089307252032,0.019348237120989455,0.003493747,0.002204017,2.2091322185164227E-4,1.9422569481692122E-4,-4.74E-05,-2.43E-05,-0.006213571,-0.012251115,0.99990563,-0.012430618,0.024502080747658767,2.0086409061424065E-4,-43.18153301,15.617341680526733,-0.591211992,45,1.5,1.8333449363708496,43.066001892089844,0,0,167.39999389648438,-86.9131117,40.4274997,9.947355004457327,-0.239828702,0.12549089307252032,-0.021006029,0.013022018325270958,7.161146212929805E-4,Classroom
98,-103.2428638,45.52454292297363,-36.14408531,-67.66666667,9.955382347106934,-0.239912413,0.12341040915366515,0.005837459,7.313381410339504E-4,0.001053259,-1.59E-04,2.6539236519630384E-4,-1.54E-04,-2.30E-04,-0.006142105,-0.012098579,0.9999079015648481,-0.012292573,0.02419448,6.094215454829538E-4,-43.18287518,15.584523620605468,-0.56315199,45,1.5,1.8333449363708496,43.066001892089844,0,0,167.39999389648438,-86.9131117,40.4274997,9.955382347106934,-0.239912413,0.12341040915366515,-0.021385584,0.013093184969089563,6.093646137459764E-4,Classroom
99,-103.2477436,45.559557075500486,-36.09662724,-64,9.951900584026447,-0.240830048,0.1226728151290162,-7.12E-04,-7.02E-05,7.878669980660225E-4,-4.00E-05,1.4678124921595299E-4,-1.78E-04,-2.93E-04,-0.006120165,-0.012102979,0.9999079710071527,-0.012250213,0.024202519123560015,7.348579962939043E-4,-43.1871452,15.619659652709961,-0.515815985,45,1.5,1.8333449363708496,43.066001892089844,0,0,167.39999389648438,-86.9131117,40.4274997,9.951900584026447,-0.240830048,0.1226728151290162,-0.021266973,0.012974573896058555,5.856423929234226E-4,Classroom
100,-103.2378621,45.50709732055664,-36.04636322,-81.88888889,9.948067396589853,-0.236625186,0.12381405238676997,-0.001877238,0.003446077,0.001781308,-6.38E-05,9.933680361498472E-5,-1.66E-04,-3.16E-04,-0.006112422,-0.012069141,0.99990842,-0.012235219,0.024134567,7.790345428748852E-4,-43.17787327,15.567687635421754,-0.466527985,45,1.5,1.8333449363708496,43.066001892089844,0,0,167.39999389648438,-86.9131117,40.4274997,9.948067396589853,-0.236625186,0.12381405238676997,-0.021290695,0.012927129421636317,5.975035053126297E-4,Classroom
101,-103.3487598,45.537962951660155,-36.1434753,-85.375,9.928706798738647,-0.242726303,0.12372983926997601,-0.010746204,-0.001374597,0.001154508,9.39765192854863E-5,1.1747057075039125E-5,-9.40E-05,-1.46E-04,-0.006171491,-0.012127283,0.999907388,-0.012349325,0.024252914841501758,4.414238346583943E-4,-43.28864906,15.597577657699585,-0.56424999,45,1.5,1.8333449363708496,43.066001892089844,0,0,167.39999389648438,-86.9131117,40.4274997,9.928706798738647,-0.242726303,0.12372983926997601,-0.021132965,0.012839539621311884,6.695825672627856E-4,Classroom
102,-103.2126081,45.526128997802736,-36.10968143,-62.55555556,9.936910481128878,-0.241895783,0.12120343715820497,0.004740085,1.7876214194066317E-4,-8.12E-04,1.1416322447685073E-4,-5.49E-05,-8.30E-05,-2.42E-04,-0.006137707,-0.012185441,0.9999068645597662,-0.012284149,0.024368072236047207,6.346799466405835E-4,-43.15274136,15.585865659713745,-0.530577994,45,1.5,1.8333449363708496,43.066001892089844,0,0,167.39999389648438,-86.9131117,40.4274997,9.936910481128878,-0.241895783,0.12120343715820497,-0.021112779,0.012772934954360273,6.805312875160966E-4,Classroom
103,-103.2809278,45.53832882,-36.07637539,-67.44444444,9.938356612492534,-0.239668485,0.12340460102824331,-6.95E-05,9.718881648721046E-4,0.001120524,7.413221450829969E-6,1.7050347512461317E-4,-4.74E-05,-2.17E-04,-0.006146878,-0.012106483,0.9999077811981868,-0.012301795,0.024210453087699067,5.821413665084373E-4,-43.22069523,15.598675594329833,-0.496295987,45,1.5,1.8333449363708496,43.066001892089844,0,0,167.39999389648438,-86.9131117,40.4274997,9.938356612492534,-0.239668485,0.12340460102824331,-0.021219529,0.012998296092580823,7.161146207278576E-4,Classroom
104,-103.265068,45.53820697784424,-36.09016144,-63.375,9.937023755,-0.240124398,0.12228369134143718,2.898058845001517E-4,0.00173549,5.387398369103959E-4,2.4463545510690045E-4,4.447909587433616E-6,-1.90E-04,-2.90E-04,-0.006121317,-0.012170753,0.9999071400142411,-0.012252496,0.024338113957817115,7.283768096138515E-4,-43.20507912,15.598431663513184,-0.510935989,45,1.5,1.8333449363708496,43.066001892089844,0,0,167.39999389648438,-86.9131117,40.4274997,9.937023755,-0.240124398,0.12228369134143718,-0.020982306,0.012832241,5.737812816644612E-4,Classroom
105,-103.2604317,45.52991107940674,-36.08723328,-89.22222222,9.942198322369503,-0.242678805,0.12139548594132066,0.002174627,-8.83E-04,3.034635220916526E-4,1.616076734685565E-4,6.375346701248612E-5,-1.07E-04,-3.47E-04,-0.006101153,-0.012170879,0.9999072447563838,-0.012213563,0.024337677,8.43664962126991E-4,-43.2006871,15.590135698318482,-0.508007984,45,1.5,1.8333449363708496,43.066001892089844,0,0,167.39999389648438,-86.9131117,40.4274997,9.942198322369503,-0.242678805,0.12139548594132066,-0.021065334,0.012891546090685048,6.568090633028051E-4,Classroom
106,-103.2344462,45.50050891876221,-36.12102737,-82.875,9.922986095391432,-0.240911359,0.1229051287168438,-0.010483547,4.595303998410123E-4,-3.31E-04,-4.00E-05,-1.02E-04,2.3722223648168508E-5,-1.85E-04,-0.006157749,-0.012170567,0.9999069397889294,-0.012322825,0.024339011499603973,5.200567617614016E-4,-43.17409134,15.560367670059204,-0.54033799,0,1.5,2.0776619911193848,13.192000389099121,0.037153725,0,167.39999389648438,-86.9131191,40.4275029,9.922986095391432,-0.240911359,0.1229051287168438,-0.021266973,0.012725490498021968,7.872812894118714E-4,Classroom
107,-103.2953239,45.501851119995116,-35.99024323,-83.66666667,9.893255974482564,-0.245017487,0.1229690150583832,-0.015481856,3.1230548053111845E-4,2.2560415916072512E-4,7.413215799600754E-6,6.375346701248612E-5,-2.25E-04,-5.43E-05,-0.006202936,-0.012332367,0.9999046915943183,-0.012410139,0.024664230915961913,2.617541787153685E-4,-43.23545704,15.561953678131104,-0.409797988,0,1.5,2.0776619911193848,13.192000389099121,0.037153725,0,167.39999389648438,-86.9131191,40.4275029,9.893255974482564,-0.245017487,0.1229690150583832,-0.021219529,0.012891546072601115,5.381979461922084E-4,Classroom
108,-103.2592122,45.51807708740235,-36.05661137,-82.375,9.887424830094124,-0.247805242,0.12221399745316182,-0.003753451,-0.002050907,0.001025541,-2.35E-05,7.048236987499807E-5,-7.05E-05,-2.50E-04,-0.006134528,-0.012434165,0.9999038261862901,-0.012278203,0.024865448815174974,6.531904334504082E-4,-43.19897919,15.577691631317139,-0.475555991,0,1.5,2.0776619911193848,13.192000389099121,0.037153725,0,167.39999389648438,-86.9131191,40.4275029,9.887424830094124,-0.247805242,0.12221399745316182,-0.021250436,0.012898275001834218,6.930766920469558E-4,Classroom
109,-103.3258241,45.511733055114746,-36.07674122,-86.11111111,9.892991658553337,-0.248917441,0.12450227928031417,0.002017234,-6.17E-04,0.001934923,-1.71E-04,-1.14E-04,-1.54E-04,-8.47E-05,-0.006191901,-0.012550683,0.9999019717707217,-0.012388932,0.025100603,3.249304673481321E-4,-43.26546928,15.57110361099243,-0.495563985,0,1.5,2.0776619911193848,13.192000389099121,0.037153725,0,167.39999389648438,-86.9131191,40.4275029,9.892991658553337,-0.248917441,0.12450227928031417,-0.021397445,0.012713629399760834,6.093646154413452E-4,Classroom
110,-103.323018,45.513928985595705,-36.03745735,-111.4444444,9.897208260101023,-0.244808406,0.11973405698115386,0.002067797,0.002875204,-0.0017762,-3.96E-04,-1.73E-04,-1.42E-04,-2.48E-04,-0.006135191,-0.012517409,0.9999027738293398,-0.01227955,0.025031987,6.495118666915234E-4,-43.26266323,15.574397630691529,-0.457987987,0,1.5,2.0776619911193848,13.192000389099121,0.037153725,0,167.39999389648438,-86.9131191,40.4275029,9.897208260101023,-0.244808406,0.11973405698115386,-0.021622806,0.012654323790909595,6.212257278305523E-4,Classroom
111,-103.3152099,45.49074905395508,-36.05844139,-104.125,9.906346802572601,-0.246896319,0.12172033189280519,0.006143681,0.001092957,-0.0016524,-3.96E-04,5.1892349537172654E-5,-1.19E-04,2.156405141527853E-5,-0.006228932,-0.012521424,0.9999021303306506,-0.012460316,0.025043368665049377,1.1290826047089352E-4,-43.25534332,15.55048565864563,-0.478849984,0,1.5,2.0776619911193848,13.192000389099121,0.037153725,0,167.39999389648438,-86.9131191,40.4275029,9.906346802572601,-0.246896319,0.12172033189280519,-0.021622807,0.012879684956256047,6.44947950348475E-4,Classroom
112,-103.2496959,45.59030120849609,-36.04819336,-89.55555556,9.946532433,-0.24342944,0.12406152705303751,0.020097473292674833,0.002533791,0.002431534,-1.59E-04,1.4678124582521545E-4,-1.54E-04,-2.92E-04,-0.006120107,-0.012387629,0.9999044664855142,-0.012250325,0.024771885693217945,7.355804369687125E-4,-43.18995121,15.65064767,-0.468357989,0,1.5,2.0776619911193848,13.192000389099121,0.037153725,0,167.39999389648438,-86.9131191,40.4275029,9.946532433,-0.24342944,0.12406152705303751,-0.021385584,0.012974573914142489,6.093646137459764E-4,Classroom
113,-103.2295658,45.50270508,-36.11895359,-77.5,9.955658181,-0.241474716,0.12355270077591961,0.006298732,0.00137672,6.337374159433309E-4,3.113542531969622E-5,1.1119791374370022E-4,-2.37E-05,-1.35E-04,-0.006175052,-0.012207935,0.999906396,-0.012356244,0.024414348316568774,4.2111674758540105E-4,-43.16921127,15.562563638687134,-0.540459996,0,1.5,2.0776619911193848,13.192000389099121,0.037153725,0,167.39999389648438,-86.9131191,40.4275029,9.955658181,-0.241474716,0.12355270077591961,-0.021195806,0.012938990510855486,7.39836845506272E-4,Classroom
114,-103.2677515,45.480134887695314,-36.11187706,-74.44444444,9.952600423572132,-0.240978148,0.12364562579150339,-7.76E-04,9.253621101379395E-4,0.00193714,-1.59E-04,1.9422569651229E-4,-1.90E-04,-3.55E-04,-0.006098557,-0.012140712,0.9999076266890591,-0.012208516,0.024277248754374033,8.584293445009395E-4,-43.20800739,15.540115642547608,-0.531553985,0,1.5,2.0776619911193848,13.192000389099121,0.037153725,0,167.39999389648438,-86.9131191,40.4275029,9.952600423572132,-0.240978148,0.12364562579150339,-0.021385584,0.013022018325270958,5.737812816644612E-4,Classroom
115,-103.2909319,45.49928882598877,-36.08625729,-71.5,9.946958079,-0.24150666,0.12476943924461346,-0.002599411,7.330475790986737E-4,0.001737019,4.299654449037846E-5,8.74756872699171E-5,-9.49E-05,-9.95E-05,-0.006187488,-0.012194592,0.9999064421190799,-0.012380252,0.024388152256029322,3.50017234048108E-4,-43.23106522,15.559391679763793,-0.50471399,0,1.5,2.0776619911193848,13.192000389099121,0.037153725,0,167.39999389648438,-86.9131191,40.4275029,9.946958079,-0.24150666,0.12476943924461346,-0.021183945,0.012915268314333216,6.68670170605906E-4,Classroom
116,-103.2657999,45.49514102935791,-36.09467529,-85.11111111,9.939526937540295,-0.244140507,0.12253923576723025,-0.004143834,-7.02E-04,-8.28E-05,4.698826579932267E-5,2.3494120866346817E-5,-3.52E-05,-1.64E-04,-0.006164878,-0.012234747,0.9999061244038435,-0.012336625,0.024467621,4.7933943890781776E-4,-43.2064212,15.554877643585206,-0.514717986,0,1.5,2.5827736854553223,12.005999565124512,0.072774678,0,167.39999389648438,-86.913114,40.4274974,9.939526937540295,-0.244140507,0.12253923576723025,-0.021179954,0.012851286742191475,7.283178806224336E-4,Classroom
117,-103.3054498,45.489407272338866,-36.04916924,-122.625,9.907380595,-0.246001913,0.12296901440736159,-0.01760355,-8.55E-04,1.2604349735871102E-4,1.9274318581718266E-5,7.561458448779959E-5,-2.73E-04,-1.04E-04,-0.006185478,-0.012347354,0.9999046192585843,-0.012376452,0.024693579,3.616117439987559E-4,-43.24546112,15.54926568031311,-0.469455984,0,1.5,2.5827736854553223,12.005999565124512,0.072774678,0,167.39999389648438,-86.913114,40.4274974,9.907380595,-0.246001913,0.12296901440736159,-0.021207667,0.012903407170862248,4.90753501721486E-4,Classroom
118,-103.3087443,45.48867527008056,-36.07478935,-129.5555556,9.890653971329476,-0.249138138,0.12356721964275953,-0.00853533,-9.92E-04,0.001400898,-7.56E-05,1.6160764351704168E-4,-1.22E-04,-1.56E-04,-0.006167044,-0.012531249,0.9999024248817592,-0.012341001,0.025060771232091106,4.6724291492418804E-4,-43.24875538,15.548777627944947,-0.495441986,0,1.5,2.5827736854553223,12.005999565124512,0.072774678,0,167.39999389648438,-86.913114,40.4274974,9.890653971329476,-0.249138138,0.12356721964275953,-0.021302557,0.013022018343354891,6.093646160064681E-4,Classroom
119,-103.2976423,45.48428307,-36.07112919,-111.8888889,9.892913272079912,-0.24574637,0.12280639557583818,-2.18E-04,0.002562678,2.2244475130895965E-4,-1.63E-05,-1.48E-04,-1.48E-06,-8.64E-05,-0.00619131,-0.012547777,0.9999020759341786,-0.012387799,0.025094688517376056,3.283390485627811E-4,-43.23814114,15.54365364074707,-0.492635989,0,1.5,2.5827736854553223,12.005999565124512,0.072774678,0,167.39999389648438,-86.913114,40.4274974,9.892913272079912,-0.24574637,0.12280639557583818,-0.021243251,0.012832240545127577,6.09364616571591E-4,Classroom
120,-103.2938596,45.48257507324219,-36.04746151,-137.625,9.896967713649456,-0.24925044,0.12294564345994821,0.002115713,-0.001239716,-0.001069647,-1.47E-04,-3.14E-04,8.154512909738329E-5,1.5394112616924706E-4,-0.006274957,-0.012543406,0.9999016135641672,-0.012549098,0.025088923630639186,-1.50E-04,-43.23423729,15.542921676635743,-0.466771991,0,1.5,2.5827736854553223,12.005999565124512,0.072774678,0,167.39999389648438,-86.913114,40.4274974,9.896967713649456,-0.24925044,0.12294564345994821,-0.021373723,0.012666185,6.923923970796891E-4,Classroom
121,-103.2987399,45.45939495,-35.99890533,-119.5555556,9.902687952,-0.247317386,0.12348300674297277,0.002684528,-4.31E-04,-0.001075016,-4.45E-06,-1.48E-04,1.6457291356134182E-4,1.5169077467592094E-4,-0.006274322,-0.012479215,0.9999024086785548,-0.012547869,0.024960521680926814,-1.47E-04,-43.23814152,15.518887672424317,-0.417971988,0,1.5,2.5827736854553223,12.005999565124512,0.072774678,0,167.39999389648438,-86.913114,40.4274974,9.902687952,-0.247317386,0.12348300674297277,-0.02123139,0.012832240499917743,7.754201787180331E-4,Classroom
122,-103.3156979,45.47513298034668,-36.01439934,-122.625,9.927312999095731,-0.244616747,0.12298062996395176,0.014799479141976069,0.001907912,-8.98E-04,-4.31E-04,-8.90E-05,-3.71E-05,7.751371298829185E-5,-0.00624865,-0.012411303,0.9999033941805942,-0.012498324,0.024823787161013456,1.0184036017942594E-7,-43.25583107,15.534869632720948,-0.434197988,0,1.5,2.5827736854553223,12.005999565124512,0.072774678,0,167.39999389648438,-86.913114,40.4274974,9.927312999095731,-0.244616747,0.12298062996395176,-0.02165839,0.012891546072601115,5.737812810993382E-4,Classroom
123,-103.2365199,45.491236991882325,-36.12139324,-94.77777778,9.949458344468793,-0.241468909,0.12482461318807694,0.010944264606364723,0.001381821,5.582586220167216E-4,-1.59E-04,-1.25E-04,4.5961795320499294E-5,1.152705348634573E-4,-0.006262265,-0.01221054,0.9999058165596527,-0.012524596,0.02442267,-7.76E-05,-43.17665329,15.55072961807251,-0.540215989,0,1.5,2.5827736854553223,12.005999565124512,0.072774678,0,167.39999389648438,-86.913114,40.4274974,9.949458344468793,-0.241468909,0.12482461318807694,-0.021385584,0.012855962705481979,6.568090633028051E-4,Classroom
124,-103.2843438,45.52539688110352,-36.08601318,-90.25,9.955785992076096,-0.241370176,0.12395634444303882,0.00385013,1.9647453266840713E-4,-5.38E-04,-5.87E-05,8.222943870350718E-5,9.397649074134488E-5,7.771496570267818E-5,-0.00624933,-0.012144858,0.9999067009641573,-0.012499616,0.024290827,-3.62E-06,-43.2244775,15.585499658584595,-0.506787988,0,1.5,2.5827736854553223,12.005999565124512,0.072774678,0,167.39999389648438,-86.913114,40.4274974,9.955785992076096,-0.241370176,0.12395634444303882,-0.021285677,0.013062733897151282,7.048237563979526E-4,Classroom
125,-103.2749501,45.481111183166504,-36.04831512,-85.22222222,9.942880908262383,-0.241538602,0.12441516197422176,-0.006952452,-1.49E-04,0.001645321,-1.23E-04,1.8384723327330595E-4,-3.71E-05,-1.63E-04,-0.006165527,-0.012131817,0.9999073674377886,-0.012337808,0.024261773410208017,4.755133156004818E-4,-43.21532738,15.541701650619506,-0.466771985,0,1.5,2.5827736854553223,12.005999565124512,0.072774678,0,167.39999389648438,-86.913114,40.4274974,9.942880908262383,-0.241538602,0.12441516197422176,-0.021350001,0.013164352,5.737812822295841E-4,Classroom
126,-103.2898337,45.470009078979494,-36.09504124,-103.625,9.935966695396646,-0.242433007,0.12122957236630824,-0.003496892,-1.01E-04,-0.001937838,1.0230210248055388E-4,-1.01E-04,4.596179871123682E-5,-8.40E-05,-0.006192902,-0.01218944,0.9999064756828604,-0.012390687,0.024378032,3.1901951457893147E-4,-43.22972313,15.529501667022705,-0.514351989,0,1.5,2.5827736854553223,12.005999565124512,0.072774678,0,167.39999389648438,-86.913114,40.4274974,9.935966695396646,-0.242433007,0.12122957236630824,-0.02112464,0.012879684956256047,6.568090649981739E-4,Classroom
127,-103.3045956,45.47830497741699,-36.12749332,-98.55555556,9.910330948320407,-0.245380477,0.1232245593395048,-0.014096603,-0.001974469,-2.44E-04,6.67187664431782E-5,-1.72E-04,6.968402122915948E-5,-9.90E-06,-0.006218546,-0.01226416,0.9999054421498937,-0.012440216,0.024528350011960975,1.7238608616379088E-4,-43.24485123,15.537919616699218,-0.547657993,0,1.5,2.5827736854553223,12.005999565124512,0.072774678,0,167.39999389648438,-86.913114,40.4274974,9.910330948320407,-0.245380477,0.1232245593395048,-0.021160223,0.012808518267227608,6.805312875160966E-4,Classroom
128,-103.3175281,45.47574303,-36.05612316,-110.7777778,9.894344834180979,-0.248649359,0.12346044533814375,-0.008429648,-0.001782421,3.4657786193403227E-4,-1.82E-04,-1.78E-05,1.0526735726653517E-4,-3.98E-05,-0.006207738,-0.012444977,0.9999032848089644,-0.01241943,0.024889627127971464,2.3425560772956337E-4,-43.25729515,15.534625606536865,-0.47640998,0,1.5,2.5827736854553223,12.005999565124512,0.072774678,0,167.39999389648438,-86.913114,40.4274974,9.894344834180979,-0.248649359,0.12346044533814375,-0.021409306,0.012962712770671521,7.161146224232264E-4,Classroom
129,-103.3182596,45.48367301940918,-36.11553726,-96.875,9.894254971476434,-0.24877515,0.12496980937939246,-9.10E-04,-0.001411915,0.001128194,-1.11E-04,-1.84E-04,1.8829514060024786E-4,1.0589353859275222E-4,-0.00625828,-0.012524125,0.9999019636691195,-0.012516931,0.025049757,-5.50E-05,-43.25790512,15.543653659820556,-0.535213991,0,1.5,2.5827736854553223,12.005999565124512,0.072774678,0,167.39999389648438,-86.913114,40.4274974,9.894254971476434,-0.24877515,0.12496980937939246,-0.02133814,0.012796657159924507,7.991424034964474E-4,Classroom
130,-103.2928839,45.47940280914307,-36.09491905,-105.1111111,9.899691155813272,-0.246632062,0.12234757732129792,0.002571041,8.44665667385731E-4,-0.001718108,-1.47E-04,-5.34E-05,8.154513361836666E-5,1.3156965299688115E-4,-0.006267302,-0.012487584,0.999902358,-0.012534331,0.024977,-1.07E-04,-43.23313919,15.539627628326416,-0.514473987,0,1.5,2.5827736854553223,12.005999565124512,0.072774678,0,167.39999389648438,-86.913114,40.4274974,9.899691155813272,-0.246632062,0.12234757732129792,-0.021373723,0.012927129403552383,6.923923993401808E-4,Classroom
131,-103.3337539,45.47598705291748,-36.00036949,-79.625,9.903501056930393,-0.247973669,0.12525439197287977,0.002027965,-4.21E-04,2.672261404759676E-4,-3.25E-04,-1.72E-04,5.7822902623600174E-5,2.967015128870646E-4,-0.006324772,-0.012486333,0.9999019833444391,-0.012645176,0.024976581172312346,-4.36E-04,-43.27352127,15.53621169090271,-0.41992399,45,1.5,2.5827736854553223,34.51300048828125,0,0,167.39999389648438,-86.913114,40.4274974,9.903501056930393,-0.247973669,0.12525439197287977,-0.02155164,0.012808518240101707,6.686701717361519E-4,Classroom
132,-103.2640919,45.50258312225342,-36.03135738,-84.33333333,9.922797434538314,-0.245545998,0.12519921841624293,0.012227681966928335,6.936308569633043E-4,0.001002833,-8.22E-05,2.1144712809473276E-4,1.1747060936893552E-4,1.0565225233431892E-4,-0.006258384,-0.012437359,0.9999030083417892,-0.012517106,0.024876258837488983,-5.56E-05,-43.20385925,15.563051643371582,-0.450789991,45,1.5,2.5827736854553223,34.51300048828125,0,0,167.39999389648438,-86.913114,40.4274974,9.922797434538314,-0.245545998,0.12519921841624293,-0.021309171,0.013191951537289871,7.283178806224336E-4,Classroom
133,-103.2926402,45.47147308349609,-36.10687527,-110.375,9.956633928910042,-0.239877565,0.1219700690973731,0.015603824726586203,0.002289176,-0.001660882,-7.56E-05,1.0081945050471616E-4,3.410067841030874E-5,-1.67E-05,-0.006216356,-0.012180272,0.9999064779976039,-0.012435974,0.024360485664270456,1.849349719034683E-4,-43.23240704,15.531697702407836,-0.52752799,45,1.5,2.5827736854553223,34.51300048828125,0,0,167.39999389648438,-86.913114,40.4274974,9.956633928910042,-0.239877565,0.1219700690973731,-0.021302556,0.013081323861786462,6.449479492182292E-4,Classroom
134,-103.2396921,45.46366519927979,-36.1121212,-117.4444444,9.957391914812106,-0.239665581,0.12532989413124843,0.00223645,8.635383497164088E-4,0.002289672,-1.59E-04,1.0081945050471616E-4,2.2239568281593253E-5,-1.34E-04,-0.006175873,-0.012080479,0.999907929,-0.012357757,0.024159452959316447,4.1632862857758244E-4,-43.17958118,15.523523654937744,-0.533017987,45,1.5,2.5827736854553223,34.51300048828125,0,0,167.39999389648438,-86.913114,40.4274974,9.957391914812106,-0.239665581,0.12532989413124843,-0.021385584,0.013081323852744495,6.330868385243908E-4,Classroom
135,-103.3024001,45.49282295227051,-36.04794918,-85,9.952367791762718,-0.240027146,0.12274432418724665,-0.00231491,-1.29E-04,5.394697044659587E-4,-1.35E-04,2.5501390421781147E-4,3.410067671493998E-5,-1.65E-04,-0.006164759,-0.012067016,0.999908159,-0.012336284,0.024132132530212402,4.798432970187826E-4,-43.24241135,15.551705684661865,-0.467625989,45,1.5,2.5827736854553223,34.51300048828125,0,0,167.39999389648438,-86.913114,40.4274974,9.952367791762718,-0.240027146,0.12274432418724665,-0.021361862,0.013235518365230375,6.449479475228604E-4,Classroom
136,-103.2633602,45.45475929260254,-36.04843719,-97.33333333,9.949228916353393,-0.242342985,0.12203976316648779,-0.001063347,-0.001155183,-9.28E-04,3.113542814531083E-5,-5.34E-05,6.968402122915948E-5,-2.32E-04,-0.006141597,-0.012095676,0.9999079443876026,-0.012291577,0.024188651187905988,6.122842350856285E-4,-43.20373741,15.514251670837403,-0.46847999,45,1.5,2.5827736854553223,34.51300048828125,0,0,167.39999389648438,-86.913114,40.4274974,9.949228916353393,-0.242342985,0.12203976316648779,-0.021195806,0.012927129430678284,6.805312875160966E-4,Classroom
137,-103.2484762,45.50209491729736,-36.06466331,-113.6666667,9.944513034,-0.240740027,0.12435708404744714,-0.002809589,1.3299648044178786E-4,0.002255013,-9.93E-05,1.2454167415288468E-4,-1.48E-06,-2.53E-04,-0.00613414,-0.012115599,0.9999077464770345,-0.012277193,0.024228238,6.549386224241529E-4,-43.18836529,15.562441701889037,-0.484339986,45,1.5,2.5827736854553223,34.51300048828125,0,0,167.39999389648438,-86.913114,40.4274974,9.944513034,-0.240740027,0.12435708404744714,-0.021326278,0.013105046058308732,6.093646160064681E-4,Classroom
138,-103.2932497,45.49489711761475,-36.03001514,-84.875,9.942526715473065,-0.241332424,0.12405507649900843,-0.001436502,3.123801310085556E-4,9.877764918271778E-4,1.4974654356053876E-4,-2.97E-05,-1.33E-05,-1.40E-04,-0.00617333,-0.012144569,0.9999071741567075,-0.012352885,0.024287549742651217,4.309195358658948E-4,-43.23301727,15.554877672195435,-0.449447987,45,1.5,2.5827736854553223,34.51300048828125,0,0,167.39999389648438,-86.913114,40.4274974,9.942526715473065,-0.241332424,0.12405507649900843,-0.021077195,0.012950851654326453,5.975035070079985E-4,Classroom
139,-103.3143561,45.51124496459961,-36.08955132,-78.33333333,9.939727320254427,-0.239775928,0.12296320686062563,-0.001513169,1.3753986702515528E-4,-0.001044618,6.716268566938547E-12,-1.53E-04,1.1747061272706979E-4,6.920827473230965E-5,-0.00624652,-0.01207827,0.9999075319904548,-0.012494188,0.024157531272906523,1.2492954847577774E-5,-43.25424538,15.571469631195068,-0.509227985,45,1.5,2.5827736854553223,34.51300048828125,0,0,167.39999389648438,-86.913114,40.4274974,9.939727320254427,-0.239775928,0.12296320686062563,-0.021226942,0.012827792581027517,7.283178795030556E-4,Classroom
140,-103.3225295,45.48867527008056,-36.08833111,-70.75,9.939187170232383,-0.241579258,0.12194683800623254,-5.90E-04,-6.90E-04,-8.43E-04,4.299654336013262E-5,-4.15E-05,2.2239576193314153E-5,-1.41E-04,-0.00617323,-0.012117842,0.9999074993781674,-0.012352675,0.024234083652930352,4.3147580560701687E-4,-43.26217518,15.548533668518067,-0.507763992,45,1.5,2.5827736854553223,34.51300048828125,0,0,167.39999389648438,-86.913114,40.4274974,9.939187170232383,-0.241579258,0.12194683800623254,-0.021183945,0.012938990537981384,6.330868424802512E-4,Classroom
141,-103.3217974,45.48025703430176,-36.10358162,-56.22222222,9.938995518730682,-0.243054445,0.12030612760521833,1.439585269076153E-4,-6.44E-04,-0.001294987,7.857987205091032E-5,-1.01E-04,5.782290770970647E-5,-3.18E-04,-0.006111369,-0.012197108,0.9999068553007923,-0.012233291,0.024390512,7.852419766651702E-4,-43.26180912,15.539871664047242,-0.522525989,45,1.5,2.5827736854553223,34.51300048828125,0,0,167.39999389648438,-86.913114,40.4274974,9.938995518730682,-0.243054445,0.12030612760521833,-0.021148362,0.012879684956256047,6.686701751268893E-4,Classroom
142,-103.2788541,45.48440521240234,-35.92753536,-52.375,9.910914634037944,-0.245920604,0.12231853785156047,-0.016597248,-0.002408135,3.2285036681925207E-4,5.4857646142250124E-5,-2.97E-05,1.0378458152877764E-5,-2.33E-04,-0.006140872,-0.012265667,0.9999058767429834,-0.012290309,0.024528635340263543,6.166537241369952E-4,-43.21935349,15.543775663375854,-0.34672399,45,1.5,2.5827736854553223,34.51300048828125,0,0,167.39999389648438,-86.913114,40.4274974,9.910914634037944,-0.245920604,0.12231853785156047,-0.021172084,0.012950851627200553,6.212257278305523E-4,Classroom
143,-103.3238718,45.48403926849365,-36.05392723,-44.77777778,9.886895775794983,-0.247320653,0.12314983929452585,-0.011292106,-7.25E-04,5.799553637365693E-4,-2.82E-05,-2.67E-04,1.0378461543615292E-5,-9.06E-05,-0.006190046,-0.012457558,0.9999032165240316,-0.012385302,0.024914184,3.354867468413506E-4,-43.2643713,15.544385719299317,-0.473603989,45,1.5,2.5827736854553223,34.51300048828125,0,0,167.39999389648438,-86.913114,40.4274974,9.886895775794983,-0.247320653,0.12314983929452585,-0.021255112,0.012713629,6.212257295259211E-4,Classroom
144,-103.3338758,45.48562511444092,-35.96498932,-57.625,9.886173201996145,-0.248972615,0.12522244920899855,-0.001970578,8.787547500388136E-5,9.922112510042283E-4,-3.60E-04,-5.34E-05,-7.26E-05,1.7154369318199563E-4,-0.006280992,-0.01257783,0.9999011020058567,-0.01256072,0.025158041,-1.85E-04,-43.27400936,15.545239696502685,-0.385397987,45,1.5,2.5827736854553223,34.51300048828125,0,0,167.39999389648438,-86.913114,40.4274974,9.886173201996145,-0.248972615,0.12522244920899855,-0.021587223,0.012927129421636317,5.381979450619626E-4,Classroom
145,-103.2955678,45.482819061279294,-35.96059727,-95.22222222,9.890816632983753,-0.24916137,0.12427577470402115,0.001980856,-0.001173738,-4.35E-04,1.61607655384623E-4,8.89583386806319E-5,2.120173619879247E-4,2.660531578301531E-4,-0.006313925,-0.012556006,0.9999011818645069,-0.012624223,0.025115549528193705,-3.74E-04,-43.23570148,15.54231164932251,-0.37978599,45,1.5,2.5827736854553223,34.51300048828125,0,0,167.39999389648438,-86.913114,40.4274974,9.890816632983753,-0.24916137,0.12427577470402115,-0.021065334,0.013069462772567295,8.228646254492472E-4,Classroom
146,-103.2533562,45.4550032,-35.98402122,-73.77777778,9.894336256008703,-0.248513796,0.12554187924393173,0.001999142,5.466885937070383E-4,7.355503954933685E-4,-7.56E-05,-1.78E-05,1.0378450806279784E-5,2.3386580496044542E-4,-0.006302679,-0.01257892,0.9999009758523367,-0.012602548,0.02516097,-3.09E-04,-43.19324528,15.514861688613891,-0.404185991,45,1.5,1.4495091438293457,43.41299819946289,0,0,167.39999389648438,-86.9131043,40.427498,9.894336256008703,-0.248513796,0.12554187924393173,-0.021302556,0.012962712734503654,6.21225723309569E-4,Classroom
147,-103.2965439,45.529788970947266,-36.05197525,-86.875,9.903501066189367,-0.247317385,0.12456906905162682,0.005986278,6.182241038634226E-4,-3.80E-04,-2.23E-04,8.222943870350718E-5,-4.70E-05,2.518901557008436E-4,-0.006309082,-0.012524359,0.999901624,-0.012614904,0.025052059513445083,-3.46E-04,-43.23631126,15.590257635116577,-0.471651987,45,1.5,1.4495091438293457,43.41299819946289,0,0,167.39999389648438,-86.9131043,40.427498,9.903501066189367,-0.247317385,0.12456906905162682,-0.021450136,0.013062733879241232,5.638590032154192E-4,Classroom
148,-103.2744624,45.483916969299315,-36.04258125,-96.66666667,9.943310728,-0.243344835,0.12510629280388935,0.020097954759320007,0.002247912,8.434911520735732E-4,-1.23E-04,1.6012500962513744E-4,-2.52E-05,1.0892179202042843E-4,-0.006259678,-0.012373488,0.999903832,-0.012519614,0.024748499333424476,-6.29E-05,-43.21447365,15.543409643173218,-0.463111986,45,1.5,1.4495091438293457,43.41299819946289,0,0,167.39999389648438,-86.9131043,40.427498,9.943310728,-0.243344835,0.12510629280388935,-0.021350001,0.013140629470637702,5.856423917931767E-4,Classroom
149,-103.2521358,45.47244907,-36.02635521,-72.375,9.942683507,-0.242136808,0.12472588091510013,4.4651401853098454E-4,6.679601750327546E-4,4.91599796466457E-4,-1.23E-04,1.482638978010532E-4,8.154513079275206E-5,7.271688656429141E-5,-0.006247439,-0.012209812,0.9999059253525966,-0.012495966,0.024420678235807465,7.145601575227807E-6,-43.19165936,15.532673654556275,-0.447129983,45,1.5,1.4495091438293457,43.41299819946289,0,0,167.39999389648438,-86.9131043,40.427498,9.942683507,-0.242136808,0.12472588091510013,-0.021350001,0.013128768363334601,6.923923970796891E-4,Classroom
150,-103.2872721,45.44560920715332,-36.08052315,-90.11111111,9.947907670030316,-0.241349849,0.12523406494445014,0.003773282,5.167903541361244E-4,7.781329953554765E-4,-2.06E-04,4.15138891238032E-5,5.782290657946062E-5,9.567191517700266E-5,-0.006255549,-0.012161309,0.9999064583222843,-0.012511624,0.024323957095157753,-3.92E-05,-43.2271611,15.505833663940429,-0.501541989,45,1.5,1.4495091438293457,43.41299819946289,0,0,167.39999389648438,-86.9131043,40.427498,9.947907670030316,-0.241349849,0.12523406494445014,-0.021433028,0.013022018307187026,6.686701745617664E-4,Classroom
151,-103.2778777,45.51441719055176,-36.06380928,-83.5,9.942885747,-0.241542791,0.1235783606982575,-0.003193355,-7.63E-05,2.1084246126193445E-4,-1.82E-04,1.8384723327330595E-4,3.41006851917838E-5,-8.08E-05,-0.006194126,-0.012135827,0.9999071504305868,-0.012393029,0.024270803911738026,3.1200676038264366E-4,-43.21788925,15.573909645080567,-0.483851985,45,1.5,1.4495091438293457,43.41299819946289,0,0,167.39999389648438,-86.9131043,40.427498,9.942885747,-0.241542791,0.1235783606982575,-0.021409306,0.013164351640034069,6.449479526089667E-4,Classroom
152,-103.2765358,45.524543113708496,-36.02184124,-113.7777778,9.942727107,-0.242032268,0.1259135795594419,7.048301326418386E-4,-5.93E-05,0.001930251,-1.11E-04,2.3129168056964296E-4,-4.89E-05,2.8328810352372916E-5,-0.006232073,-0.01216699,0.9999065416530498,-0.012466296,0.024334479,9.502972707460923E-5,-43.21630329,15.583547668457031,-0.441395985,45,1.5,1.4495091438293457,43.41299819946289,0,0,167.39999389648438,-86.9131043,40.427498,9.942727107,-0.242032268,0.1259135795594419,-0.02133814,0.013211796141582207,5.619201687101311E-4,Classroom
153,-103.282392,45.497458915710446,-35.98036114,-117.5,9.942889732064552,-0.241526987,0.12508015819255588,2.4230734815875303E-4,-4.48E-04,0.001865228,-1.47E-04,1.3640278597696893E-4,2.223957054208494E-5,-7.16E-05,-0.006197315,-0.012136417,0.9999071359634399,-0.012399184,0.024272080944869125,2.937688362896013E-4,-43.22289124,15.556707592010499,-0.402233991,45,1.5,1.4495091438293457,43.41299819946289,0,0,167.39999389648438,-86.9131043,40.427498,9.942889732064552,-0.241526987,0.12508015819255588,-0.021373723,0.013116907210821666,6.330868396546367E-4,Classroom
154,-103.2396919,45.49038311004639,-36.07698536,-92.55555556,9.943348495705614,-0.241576351,0.12486817203100445,-2.30E-04,3.8939584227441586E-4,6.328457333509204E-4,-1.23E-04,1.719861214492217E-4,-1.48E-06,5.964379423265887E-5,-0.006242974,-0.012169969,0.9999064403830222,-0.012487341,0.024340821,3.269025311735798E-5,-43.18031319,15.549509649276734,-0.497393988,45,1.5,1.4495091438293457,43.41299819946289,0,0,167.39999389648438,-86.9131043,40.427498,9.943348495705614,-0.241576351,0.12486817203100445,-0.021350001,0.013152490632192603,6.09364616571591E-4,Classroom
155,-103.3028883,45.47171733856201,-36.03355343,-104.8888889,9.940732131883935,-0.24129177,0.12443839360788031,-9.17E-04,0.001101078,0.001350698,-3.29E-04,4.698825068771839E-4,-7.05E-05,-9.28E-05,-0.006189846,-0.012178165,0.9999066688693486,-0.012384783,0.024355329304503705,3.364930179390495E-4,-43.24277691,15.532185678482056,-0.455303993,45,1.5,1.4495091438293457,43.41299819946289,0,0,167.39999389648438,-86.9131043,40.427498,9.940732131883935,-0.24129177,0.12443839360788031,-0.021555859,0.013450386969802471,5.4036487787156E-4,Classroom
156,-103.284222,45.468911247253416,-36.03757915,-128,9.939219159987367,-0.241826091,0.12532408549947646,-0.001260674,-3.32E-04,0.001668539,5.4857645577127204E-5,-2.97E-05,1.4085068878292748E-4,-1.71E-05,-0.006216302,-0.012150545,0.9999068437270748,-0.012435853,0.024301022,1.8523217938344564E-4,-43.22459934,15.528769636154175,-0.457743988,45,1.5,1.4495091438293457,43.41299819946289,0,0,167.39999389648438,-86.9131043,40.427498,9.939219159987367,-0.241826091,0.12532408549947646,-0.021172084,0.012950851618158586,7.516979550698645E-4,Classroom
157,-103.2884921,45.44072937011719,-36.03452942,-124.5555556,9.919065892117695,-0.243739767,0.1255476873331857,-0.012713423,-0.001921229,8.435563265698627E-4,1.0230209400371006E-4,5.337500320837914E-5,1.2898958091470366E-4,1.5756206355556801E-4,-0.00627708,-0.012173662,0.9999061770809506,-0.012553192,0.024349432095017248,-1.62E-04,-43.22862553,15.501319694519044,-0.455181986,45,1.5,1.4495091438293457,43.41299819946289,0,0,167.39999389648438,-86.9131043,40.427498,9.919065892117695,-0.243739767,0.1255476873331857,-0.02112464,0.013033879423532093,7.39836845506272E-4,Classroom
158,-103.3100861,45.46134724,-35.99402542,-101,9.888679263661208,-0.247387079,0.12430190982170475,-0.014315633,-0.002311642,1.5944683725394092E-4,4.2996532057674184E-5,5.930555912042127E-6,1.8829514286073957E-4,1.309133202402804E-4,-0.006267331,-0.01237482,0.9999037720624683,-0.012534379,0.024751431136889365,-1.07E-04,-43.2504631,15.520839672088623,-0.413579989,45,1.5,1.4495091438293457,43.41299819946289,0,0,167.39999389648438,-86.9131043,40.427498,9.888679263661208,-0.247387079,0.12430190982170475,-0.021183945,0.012986434967193788,7.991424046266932E-4,Classroom
159,-103.2539663,45.48001300811767,-35.99548916,-97.55555556,9.886153688797584,-0.247769306,0.1264485980455692,-0.002694917,-9.15E-04,5.087717933562196E-4,-2.54E-04,-4.15E-05,9.340624487732799E-5,4.10247927540642E-4,-0.006364298,-0.012481169,0.9999017599716927,-0.01272141,0.024967713842114197,-6.62E-04,-43.19422119,15.539993648529054,-0.415775992,45,1.5,1.4495091438293457,43.41299819946289,0,0,167.39999389648438,-86.9131043,40.427498,9.886153688797584,-0.247769306,0.1264485980455692,-0.021480473,0.012938990556065318,7.042535105991421E-4,Classroom
160,-103.2542102,45.47098507,-35.96340305,-98.625,9.891002479108792,-0.247622297,0.1261458933642767,0.0018471,-0.001128074,-2.17E-04,-1.63E-05,-1.72E-04,2.0015625185920921E-4,5.155260461604096E-4,-0.006401006,-0.012456575,0.9999017894846721,-0.012792232,0.024919885093147316,-8.72E-04,-43.19458717,15.53096565246582,-0.383445988,45,1.5,1.4495091438293457,43.41299819946289,0,0,167.39999389648438,-86.9131043,40.427498,9.891002479108792,-0.247622297,0.1261458933642767,-0.021243251,0.012808518267227608,8.110035147554088E-4,Classroom
161,-103.2970321,45.455125160217285,-36.05563541,-103.1111111,9.895858014671548,-0.246208091,0.12557672658591595,0.002581689,1.3622641563415527E-4,-0.001255083,-1.94E-04,-2.43E-04,1.1712847304647987E-4,5.130240664302E-4,-0.006400181,-0.012440009,0.9999020030197588,-0.012790653,0.024886718869787976,-8.67E-04,-43.23692127,15.51583770751953,-0.477141992,45,1.5,2.062542200088501,41.85200119018555,0,0,167.39999389648438,-86.9131165,40.4274989,9.895858014671548,-0.246208091,0.12557672658591595,-0.021421167,0.012737351605325069,7.279757359426794E-4,Classroom
162,-103.3164296,45.50172908782959,-36.04855927,-94.22222222,9.907543256,-0.245996107,0.12538797263670892,0.007671041,6.929618641010766E-6,-0.001393886,-2.82E-05,-1.25E-04,9.340624148659047E-5,5.427346558047874E-4,-0.006410569,-0.012421906,0.999902137,-0.012810702,0.024850909788053013,-9.26E-04,-43.25680706,15.56219765663147,-0.469089987,45,1.5,2.062542200088501,41.85200119018555,0,0,167.39999389648438,-86.9131165,40.4274989,9.907543256,-0.245996107,0.12538797263670892,-0.021255112,0.012855962687398045,7.042535089037734E-4,Classroom
163,-103.233836,45.50404712677002,-36.06490707,-85.875,9.947660817,-0.241044938,0.12528633499897798,0.019763854833749626,0.002125017,5.257209189809286E-4,-1.64E-04,1.6445887740701437E-4,-2.35E-05,1.8157517232326043E-4,-0.00628524,-0.012259192,0.9999050738719794,-0.012568936,0.024520802275779154,-2.09E-04,-43.17348141,15.563905677795411,-0.484217982,45,1.5,2.062542200088501,41.85200119018555,0,0,167.39999389648438,-86.9131165,40.4274989,9.947660817,-0.241044938,0.12528633499897798,-0.0213914,0.013144963313467227,5.873531313577237E-4,Classroom
164,-103.2649458,45.49672718048096,-36.07100731,-99.88888889,9.956602003967877,-0.240554178,0.1255128407507267,0.006001713,7.014074950542265E-4,8.792736142584421E-4,7.413200541281874E-6,4.151389138429489E-5,6.96840189686678E-5,1.1003032669341601E-4,-0.006260639,-0.012125368,0.9999068749761119,-0.012521461,0.02425224,-6.82E-05,-43.20459137,15.555731649398803,-0.492025986,45,1.5,2.062542200088501,41.85200119018555,0,0,167.39999389648438,-86.9131165,40.4274989,9.956602003967877,-0.240554178,0.1255128407507267,-0.021219528,0.013022018361438825,6.805312863858508E-4,Classroom
165,-103.2256618,45.478305168151856,-36.05941734,-87.25,9.952870462,-0.239761409,0.12542862727225407,-0.001000219,-2.71E-04,-1.30E-04,1.9274310104874443E-5,-2.97E-05,2.0015624507773415E-4,2.4343866021208494E-4,-0.006307347,-0.012030831,0.999907699,-0.012611657,0.024064840134052398,-3.35E-04,-43.16616127,15.53852967262268,-0.48006999,45,1.5,2.062542200088501,41.85200119018555,0,0,167.39999389648438,-86.9131165,40.4274989,9.952870462,-0.239761409,0.12542862727225407,-0.021207667,0.012950852,8.110035113646712E-4,Classroom
166,-103.2740962,45.47732902526855,-36.03550529,-104.1111111,9.939477532,-0.242610147,0.1253008548785182,-0.007798019,-0.002036485,-2.31E-05,-5.19E-05,-4.15E-05,9.340624487732799E-5,2.1925300069535332E-4,-0.006298766,-0.012093699,0.9999070040230612,-0.012595076,0.024190271580682217,-2.86E-04,-43.21398533,15.53743164,-0.45554799,45,1.5,2.062542200088501,41.85200119018555,0,0,167.39999389648438,-86.9131165,40.4274989,9.939477532,-0.242610147,0.1253008548785182,-0.021278834,0.012938990547023351,7.042535105991421E-4,Classroom
167,-103.2790983,45.48367305755615,-36.06478539,-63.125,9.937214236993055,-0.241741235,0.12522342722289836,-6.48E-07,4.00769189723487E-4,6.7460406752466E-4,-1.35E-04,1.3640278597696893E-4,-3.71E-05,1.3453504579757968E-4,-0.006269039,-0.012183477,0.9999061099533896,-0.012537676,0.024368769407851026,-1.16E-04,-43.21886532,15.543775672912597,-0.485681983,45,1.5,2.062542200088501,41.85200119018555,0,0,167.39999389648438,-86.9131165,40.4274989,9.937214236993055,-0.241741235,0.12522342722289836,-0.021361862,0.013116907210821666,5.737812799690924E-4,Classroom
168,-103.2815385,45.48769894,-36.03965321,-104.1111111,9.943720271286455,-0.239973396,0.12584098211480577,0.002621753,5.812997956877774E-4,0.001812642,-1.94E-04,3.143194633382327E-4,1.1712846965574235E-4,3.3102966305254863E-5,-0.006233846,-0.012119484,0.9999071209176073,-0.012469718,0.024239506120386632,8.492707764700965E-5,-43.22167122,15.547801637649536,-0.460549986,45,1.5,2.062542200088501,41.85200119018555,0,0,167.39999389648438,-86.9131165,40.4274989,9.943720271286455,-0.239973396,0.12584098211480577,-0.021421167,0.013294824,7.279757342473107E-4,Classroom
169,-103.2891019,45.44207118988037,-36.0464854,-81.25,9.942785170471783,-0.242003229,0.12585259836564944,-7.06E-04,-0.001169823,0.001599276,-8.75E-05,1.6012500962513744E-4,1.0378455892386077E-5,1.0908113557385697E-4,-0.006260336,-0.012109807,0.9999070537900462,-0.012520857,0.024221116,-6.65E-05,-43.2291132,15.501563701629639,-0.46664999,45,1.5,2.062542200088501,41.85200119018555,0,0,167.39999389648438,-86.9131165,40.4274989,9.942785170471783,-0.242003229,0.12585259836564944,-0.021314417,0.013140629434469834,6.212257267003065E-4,Classroom
170,-103.2662881,45.486357,-36.05185337,-99.55555556,9.941713684970892,-0.241628625,0.12265539201862603,-4.97E-04,4.321300926116797E-4,-4.21E-04,-4.70E-05,1.8795300275087357E-4,-8.22E-05,-1.49E-04,-0.006170301,-0.012161697,0.9999069863787065,-0.012347047,0.024321699067233846,4.482562924819761E-4,-43.20629913,15.546825637817383,-0.472017991,45,1.5,2.062542200088501,41.85200119018555,0,0,167.39999389648438,-86.9131165,40.4274989,9.941713684970892,-0.241628625,0.12265539201862603,-0.02127393,0.013168457438811086,5.286178174383866E-4,Classroom
171,-103.27617,45.48611312866211,-36.02379326,-66.625,9.940125233918717,-0.241689606,0.12409282815687865,-7.57E-04,-6.72E-05,0.001042971,-1.35E-04,1.6012500962513744E-4,2.2239568281593253E-5,-1.05E-04,-0.006185658,-0.012156898,0.9999069594642491,-0.012376694,0.024312631778636025,3.6044303639746697E-4,-43.21642544,15.546093664169312,-0.443713992,45,1.5,2.062542200088501,41.85200119018555,0,0,167.39999389648438,-86.9131165,40.4274989,9.940125233918717,-0.241689606,0.12409282815687865,-0.021361862,0.013140629443511801,6.330868385243908E-4,Classroom
172,-103.3038644,45.516369094848635,-36.02318325,-70.77777778,9.923831180461402,-0.242836652,0.12481590114461566,-0.010492075,-0.001125941,0.001181298,1.1416320356730263E-4,-2.97E-05,1.6457291695207935E-4,-5.67E-06,-0.00622023,-0.012168321,0.9999066099379826,-0.012443441,0.024336702922738873,1.6276883739849227E-4,-43.24387531,15.576715660095214,-0.44359199,45,1.5,2.062542200088501,41.85200119018555,0,0,167.39999389648438,-86.9131165,40.4274989,9.923831180461402,-0.242836652,0.12481590114461566,-0.021112778,0.012950851672410387,7.754201804134019E-4,Classroom
173,-103.2533559,45.47830501556396,-36.00561516,-58.77777778,9.889910605347271,-0.248844842,0.12426996672327079,-0.015872678,-0.002519062,1.2112842890822771E-4,-1.35E-04,5.337500320837914E-5,-1.48E-06,1.2827382261976594E-4,-0.006266279,-0.012433613,0.9999030481264429,-0.012532354,0.024868989218641252,-1.01E-04,-43.19336716,15.538651638031006,-0.425291989,45,1.5,2.062542200088501,41.85200119018555,0,0,167.39999389648438,-86.9131165,40.4274989,9.889910605347271,-0.248844842,0.12426996672327079,-0.021361862,0.013033879,6.093646177018369E-4,Classroom
174,-103.2933718,45.47427902,-35.98902325,-75.625,9.884658208,-0.24864073,0.12443828160086504,-0.0041364,-3.98E-04,0.001075269,7.413202236650638E-6,1.482638978010532E-4,9.340624148659047E-5,5.2328348791650446E-5,-0.006239546,-0.012568306,0.999901538,-0.012480818,0.025137447290918203,5.2210620199209355E-5,-43.23326122,15.534137649536133,-0.408943985,45,1.5,2.062542200088501,41.85200119018555,0,0,167.39999389648438,-86.9131165,40.4274989,9.884658208,-0.24864073,0.12443828160086504,-0.021219528,0.013128768,7.042535089037734E-4,Classroom
175,-103.2234667,45.48623516082764,-36.01854755,-102.1111111,9.890816642242727,-0.248319235,0.12292835984415221,0.002069742,-4.07E-04,-5.17E-04,-8.75E-05,-1.13E-04,9.340624374708215E-5,5.792454637729446E-5,-0.006241613,-0.01251539,0.9999021610010017,-0.012484795,0.025031709,4.040600727209485E-5,-43.16347721,15.546581707000733,-0.439443987,45,1.5,2.062542200088501,41.85200119018555,0,0,167.39999389648438,-86.9131165,40.4274989,9.890816642242727,-0.248319235,0.12292835984415221,-0.021314417,0.012867824,7.042535100340192E-4,Classroom
176,-103.3354618,45.49343304,-36.0540493,-84.375,9.895021623778112,-0.247070553,0.1250772535511591,0.002069779,-3.86E-04,0.00128414,-1.47E-04,1.3640278597696893E-4,-1.48E-06,5.1203757203279784E-5,-0.006239366,-0.012472245,0.9999027425803028,-0.012480445,0.024945295099349854,5.325776064372565E-5,-43.27535118,15.552559661865235,-0.473847984,45,1.5,2.062542200088501,41.85200119018555,0,0,167.39999389648438,-86.9131165,40.4274989,9.895021623778112,-0.247070553,0.1250772535511591,-0.021373723,0.013116907,6.093646182669598E-4,Classroom
177,-103.2872722,45.49989887237549,-35.9749934,-76,9.900155771125867,-0.247177999,0.12247534942569084,0.003510651,0.001080345,-0.001360593,-1.23E-04,7.709722685654765E-5,1.0378462673861135E-5,1.1016829961749643E-4,-0.006259793,-0.012513011,0.999902097,-0.012519848,0.025027578967867545,-6.37E-05,-43.22691734,15.560123624801635,-0.39686599,45,1.5,2.1318695545196533,43.00299835205078,0,0,167.39999389648438,-86.913123,40.4274968,9.900155771125867,-0.247177999,0.12247534942569084,-0.021350001,0.013057601647180261,6.21225730091044E-4,Classroom
178,-103.3120374,45.500630912780764,-36.08186543,-106.875,9.932400694171202,-0.244744521,0.12521083327462373,0.017193335753220778,0.001694154,0.002302279,-3.05E-04,2.2319419076666236E-4,-1.06E-04,-6.34E-05,-0.006199522,-0.012445021,0.9999033287167549,-0.012403574,0.024889427,2.8124849045350577E-4,-43.25180508,15.560001707077026,-0.500931986,45,1.5,2.1318695545196533,43.00299835205078,0,0,167.39999389648438,-86.913123,40.4274968,9.932400694171202,-0.244744521,0.12521083327462373,-0.021532365,0.013203698631304387,5.051236932139056E-4,Classroom
179,-103.2970319,45.51002521514893,-36.01964516,-94.33333333,9.941931447,-0.240644198,0.12319551921874575,0.006254474,0.003407308,7.562507124780451E-4,-3.96E-04,3.73625022458654E-4,-1.56E-04,-1.84E-04,-0.006157917,-0.012280076,0.999905599,-0.012323206,0.024558054952366837,5.191589233379877E-4,-43.2370433,15.570493602752686,-0.439443988,45,1.5,2.1318695545196533,43.00299835205078,0,0,167.39999389648438,-86.913123,40.4274968,9.941931447,-0.240644198,0.12319551921874575,-0.021622806,0.013354129465387284,4.551701645538645E-4,Classroom
180,-103.2507938,45.495628929138185,-36.01195923,-102.875,9.953735823770172,-0.243341931,0.12486817188633298,0.005846885,-4.43E-04,0.002188147,-2.18E-04,3.380416869864012E-4,-8.45E-05,-1.74E-04,-0.006161573,-0.01220719,0.9999064837844627,-0.012330215,0.024412386951226633,4.981789595316937E-4,-43.19104939,15.555121631622315,-0.431025989,45,1.5,2.1318695545196533,43.00299835205078,0,0,167.39999389648438,-86.913123,40.4274968,9.953735823770172,-0.243341931,0.12486817188633298,-0.02144489,0.013318546125394048,5.263368338030012E-4,Classroom
181,-103.2898338,45.473669090270995,-36.03038128,-100.4444444,9.951915019,-0.240539658,0.12362239357915897,-1.98E-04,0.002082362,6.129653419105752E-4,-2.18E-04,2.0756945692147446E-4,3.4100678975431667E-5,-1.30E-04,-0.006176714,-0.012188448,0.9999066209330142,-0.012359435,0.024375428,4.115817452074428E-4,-43.22972328,15.53377163887024,-0.449569989,45,1.5,2.1318695545196533,43.00299835205078,0,0,167.39999389648438,-86.913123,40.4274968,9.951915019,-0.240539658,0.12362239357915897,-0.02144489,0.013188073890808137,6.449479486531063E-4,Classroom
182,-103.3458321,45.415596923828126,-36.01208122,-90,9.947536220917335,-0.242983661,0.12537585485440034,-0.002338021,-0.001097576,1.982514140675369E-4,7.41319941103603E-6,-6.52E-05,2.2387847324688602E-4,1.9544354905272625E-4,-0.006290356,-0.01214124,0.9999064507993679,-0.012578831,0.024285093546637052,-2.38E-04,-43.28596523,15.47594367980957,-0.431635992,45,1.5,2.1318695545196533,43.00299835205078,0,0,167.39999389648438,-86.913123,40.4274968,9.947536220917335,-0.242983661,0.12537585485440034,-0.021219528,0.012915268314333216,8.347257395338231E-4,Classroom
183,-103.2642142,45.44756103515625,-36.00341949,-77.75,9.918763753,-0.244854869,0.12523116127958575,-0.014013068,-0.002651699,9.07594066800423E-4,-1.71E-04,1.719861214492217E-4,1.1712846965574235E-4,8.292061220381766E-5,-0.006251005,-0.012207046,0.9999059392410574,-0.01250286,0.024415269909987172,-1.32E-05,-43.20446926,15.507297649383545,-0.423095989,45,1.5,2.1318695545196533,43.00299835205078,0,0,167.39999389648438,-86.913123,40.4274968,9.918763753,-0.244854869,0.12523116127958575,-0.021397445,0.013152490550814902,7.279757342473107E-4,Classroom
184,-103.2320056,45.47391326904297,-36.04941326,-101.6666667,9.918531408587706,-0.244538343,0.12286737655262345,-0.001361717,-5.26E-04,-5.25E-05,-3.48E-04,2.668750160418957E-4,-3.71E-05,-1.17E-04,-0.006181257,-0.01230732,0.9999051354463818,-0.01236827,0.024613360087703734,3.856873584843978E-4,-43.1720174,15.533649663925171,-0.469821981,45,1.5,2.1318695545196533,43.00299835205078,0,0,167.39999389648438,-86.913123,40.4274968,9.918531408587706,-0.244538343,0.12286737655262345,-0.021575362,0.013247379472533476,5.737812810993382E-4,Classroom
185,-103.249696,45.48879699707031,-35.99524521,-64.625,9.931962124352316,-0.240702277,0.1231722882361088,0.006370989,0.003250201,9.849943871636992E-4,-2.42E-04,2.0756945692147446E-4,-2.52E-05,-1.54E-04,-0.006168268,-0.012270518,0.9999056603144674,-0.012343187,0.024539298585896353,4.599699190761897E-4,-43.18982914,15.549021644592285,-0.41565399,45,1.5,2.1318695545196533,43.00299835205078,0,0,167.39999389648438,-86.913123,40.4274968,9.931962124352316,-0.240702277,0.1231722882361088,-0.021468612,0.013188073936017971,5.856423900978079E-4,Classroom
186,-103.3124041,45.49038311004639,-36.03892097,-76.55555556,9.928944921030581,-0.24247947,0.12564642040185559,-0.003336631,-5.37E-04,0.001930322,-2.58E-04,2.9367656679823995E-4,1.2921767819744462E-4,3.2966270501114755E-6,-0.006223321,-0.012183115,0.9999064103915141,-0.012449413,0.024366412,1.450897805083374E-4,-43.25229317,15.551217679977418,-0.458231985,45,1.5,2.1318695545196533,43.00299835205078,0,0,167.39999389648438,-86.913123,40.4274968,9.928944921030581,-0.24247947,0.12564642040185559,-0.021485377,0.013274181034201039,7.400649432943632E-4,Classroom
187,-103.266898,45.51246501922608,-36.03257717,-87,9.916417408915398,-0.244918755,0.12449937581437305,-0.00516797,-0.00151997,8.105132186297074E-5,-1.47E-04,-1.78E-05,1.4085069217366502E-4,1.3484584303458761E-4,-0.006268951,-0.012266198,0.9999050995678578,-0.012537497,0.024534224,-1.16E-04,-43.20703114,15.573177652359009,-0.45286399,45,1.5,2.1318695545196533,43.00299835205078,0,0,167.39999389648438,-86.913123,40.4274968,9.916417408915398,-0.244918755,0.12449937581437305,-0.021373723,0.012962713,7.516979567652333E-4,Classroom
188,-103.2801955,45.469155158996585,-35.96315929,-87.88888889,9.891234805283037,-0.249021981,0.12508886907864541,-0.012820049,-0.002259757,8.496127082306204E-4,-1.47E-04,2.3129168056964296E-4,5.782290883995231E-5,1.444203086061994E-4,-0.006271847,-0.012456932,0.9999027223262972,-0.012543101,0.024915833839947738,-1.33E-04,-43.22057331,15.529257650375365,-0.382225991,45,1.5,2.1318695545196533,43.00299835205078,0,0,167.39999389648438,-86.913123,40.4274968,9.891234805283037,-0.249021981,0.12508886907864541,-0.021373723,0.013211796168708106,6.686701756920123E-4,Classroom
189,-103.3253357,45.49404297,-36.01659534,-111.375,9.887726783752441,-0.249402393,0.1235614128193809,-0.00290792,-4.08E-04,-6.89E-04,-2.18E-04,-1.78E-05,1.0526735500604348E-4,1.7138816799416921E-4,-0.006280928,-0.012585952,0.9999010481880707,-0.01256061,0.025174229451030202,-1.85E-04,-43.2657135,15.554755649566651,-0.436271988,45,1.5,2.1318695545196533,43.00299835205078,0,0,167.39999389648438,-86.913123,40.4274968,9.887726783752441,-0.249402393,0.1235614128193809,-0.021444889,0.012962713,7.161146212929805E-4,Classroom
190,-103.2915421,45.46817916870117,-36.02952721,-88.11111111,9.891790821002079,-0.248980097,0.12405289902996558,0.001526879,-5.16E-04,-1.02E-04,-4.45E-06,5.337500320837914E-5,1.4085069330391084E-4,1.4994695134335203E-4,-0.006273517,-0.012564662,0.9999013658866142,-0.01254632,0.025131377002712594,-1.42E-04,-43.23130924,15.528281650543214,-0.449813989,45,1.5,2.1318695545196533,43.00299835205078,0,0,167.39999389648438,-86.913123,40.4274968,9.891790821002079,-0.248980097,0.12405289902996558,-0.02123139,0.013033879468741925,7.516979573303562E-4,Classroom
191,-103.2790981,45.48806526184082,-35.9962212,-96.375,9.895463045360973,-0.248287291,0.12470845697284902,0.001799185,-5.06E-04,5.321549703773943E-4,-1.35E-04,1.779166773612638E-5,1.0526735839678101E-4,1.4601215274330032E-4,-0.006272254,-0.012518761,0.9999019497806586,-0.012543882,0.025039521633710676,-1.35E-04,-43.21862137,15.547313632965087,-0.415653992,45,1.5,2.1318695545196533,43.00299835205078,0,0,167.39999389648438,-86.913123,40.4274968,9.895463045360973,-0.248287291,0.12470845697284902,-0.021361862,0.012998296,7.161146229883493E-4,Classroom
192,-103.3015456,45.46415298461914,-36.0065913,-90.33333333,9.901015346490064,-0.246675621,0.12346267960603954,0.003260853,7.607249669658328E-4,-0.001464445,-2.18E-04,-1.36E-04,1.2898958204494952E-4,2.598640695722882E-4,-0.006311946,-0.012488594,0.9999020533654296,-0.012620438,0.024980627,-3.62E-04,-43.24155727,15.524133653640748,-0.425901987,45,1.5,2.901481866836548,43.25699996948242,0,0,167.59999084472656,-86.9131046,40.4274963,9.901015346490064,-0.246675621,0.12346267960603954,-0.02144489,0.012844102,7.398368460713949E-4,Classroom
193,-103.3186259,45.46195724487305,-36.00244312,-75.66666667,9.903570777004205,-0.245162682,0.12424092681951893,0.001440474,8.282429963639639E-4,-9.04E-04,-5.19E-05,-1.84E-04,1.6457291695207935E-4,2.7540744643206864E-4,-0.006317515,-0.0124244,0.9999028131799791,-0.012631197,0.024852429652242984,-3.94E-04,-43.25839317,15.521937656402589,-0.42236399,45,1.5,2.901481866836548,43.25699996948242,0,0,167.59999084472656,-86.9131046,40.4274963,9.903570777004205,-0.245162682,0.12424092681951893,-0.021278834,0.012796657,7.754201804134019E-4,Classroom
194,-103.2678738,45.47013130187988,-35.97084545,-58.25,9.904035364539878,-0.246739507,0.12480138169908986,1.1171744419978216E-4,-9.17E-04,-3.33E-04,-2.35E-05,-3.52E-05,7.048236539748569E-5,2.975141327276823E-4,-0.006325247,-0.012409457,0.9999029441521718,-0.012646115,0.024822826139055766,-4.38E-04,-43.20776329,15.529501667022705,-0.389545989,45,1.5,2.901481866836548,43.25699996948242,0,0,167.59999084472656,-86.9131046,40.4274963,9.904035364539878,-0.246739507,0.12480138169908986,-0.021250436,0.012945263216701837,6.813296316137824E-4,Classroom
195,-103.3143564,45.47293716430664,-35.97194309,-56.75,9.906916007254887,-0.246475252,0.12408992445584639,0.001682911,-1.15E-04,-0.001304159,-2.30E-04,-1.78E-05,2.2239573367699546E-5,3.155796727599594E-4,-0.006331478,-0.012432355,0.9999026123759815,-0.01265813,0.024868855,-4.74E-04,-43.25412323,15.53291766166687,-0.392839991,45,1.5,2.901481866836548,43.25699996948242,0,0,167.59999084472656,-86.9131046,40.4274963,9.906916007254887,-0.246475252,0.12408992445584639,-0.021456751,0.012962712752587587,6.330868402197596E-4,Classroom
196,-103.2810499,45.46207908630371,-36.01415543,-78.11111111,9.918148263,-0.245386286,0.12485946032209592,0.008339512,9.426782721454657E-4,7.472984420443045E-4,-3.48E-04,1.6012500962513744E-4,3.410067841030874E-5,1.1044079539794783E-4,-0.006260079,-0.012426183,0.9999031615488737,-0.012520378,0.024853933,-6.53E-05,-43.22130512,15.522059631347656,-0.434563988,45,1.5,2.901481866836548,43.25699996948242,0,0,167.59999084472656,-86.9131046,40.4274963,9.918148263,-0.245386286,0.12485946032209592,-0.021575362,0.013140629461595735,6.449479492182292E-4,Classroom
197,-103.2673862,45.455369300842285,-35.99048752,-88.625,9.954322453841423,-0.241373081,0.1246155314509151,0.016234203449730734,0.001934687,5.98032570000991E-4,-2.89E-04,3.024583515141485E-4,-1.33E-05,4.414628538319607E-5,-0.006237417,-0.012242766,0.9999055902934769,-0.012476635,0.024486227630122193,6.446311715425182E-5,-43.20739735,15.51559365272522,-0.411261991,45,1.5,2.901481866836548,43.25699996948242,0,0,167.59999084472656,-86.9131046,40.4274963,9.954322453841423,-0.241373081,0.1246155314509151,-0.021516056,0.013282962812526711,5.975035058777527E-4,Classroom
198,-103.265312,45.48025714874267,-35.95779121,-103,9.959859857192406,-0.239457699,0.12444403416548784,0.005191988,0.001767827,9.917972735988283E-4,-1.82E-04,2.3129168056964296E-4,-4.89E-05,-6.34E-05,-0.006200251,-0.012108706,0.9999074559767269,-0.012404845,0.024216759154229488,2.7698379581477954E-4,-43.20507923,15.539993638992309,-0.377467991,45,1.5,2.901481866836548,43.25699996948242,0,0,167.59999084472656,-86.9131046,40.4274963,9.959859857192406,-0.239457699,0.12444403416548784,-0.021409306,0.013211796114456307,5.619201709706228E-4,Classroom
199,-103.271534,45.45805313110352,-35.98804714,-100,9.956904041,-0.238890237,0.12455745395815489,-1.00E-03,0.001141411,0.001606389,-3.25E-04,2.4315279239372722E-4,-3.71E-05,-1.41E-04,-0.006173334,-0.012067728,0.9999081087343901,-0.012352847,0.024133848984843317,4.308393481639621E-4,-43.21154526,15.517911682128906,-0.408455989,45,1.5,2.901481866836548,43.25699996948242,0,0,167.59999084472656,-86.9131046,40.4274963,9.956904041,-0.238890237,0.12455745395815489,-0.021551639,0.013223657276011208,5.737812810993382E-4,Classroom
200,-103.2566501,45.51124519348144,-36.05404911,-103.125,9.951595649,-0.240420598,0.12439193077457761,-0.002740425,-9.76E-05,9.191999012984119E-4,-2.77E-04,3.380416869864012E-4,-6.08E-05,-8.40E-05,-0.006193148,-0.012072362,0.9999079391794298,-0.012391115,0.024143813376866496,3.175871176864851E-4,-43.19678314,15.571347675323487,-0.473969991,45,1.5,2.901481866836548,43.25699996948242,0,0,167.59999084472656,-86.9131046,40.4274963,9.951595649,-0.240420598,0.12439193077457761,-0.021504195,0.013318546125394048,5.500590551906781E-4,Classroom
201,-103.2849536,45.47586498260498,-36.03013725,-74.55555556,9.946133391,-0.240873607,0.12334942680250094,-0.003791744,2.313924645914615E-4,6.414691655381212E-4,-1.35E-04,1.719861214492217E-4,-1.33E-05,-1.80E-04,-0.006159561,-0.012119198,0.9999075682417861,-0.01232628,0.024236311702039635,5.096178750498492E-4,-43.22569729,15.535845623016357,-0.449081985,45,1.5,2.901481866836548,43.25699996948242,0,0,167.59999084472656,-86.9131046,40.4274963,9.946133391,-0.240873607,0.12334942680250094,-0.021361862,0.013152490577940802,5.975035041823839E-4,Classroom
202,-103.2955679,45.443047256469725,-35.93656342,-80.375,9.936628795364529,-0.242537549,0.1234394481893882,-0.005090026,-9.92E-04,2.792131585570482E-4,5.5968904724487895E-12,0,5.8735294330220386E-5,-8.76E-05,-0.006191735,-0.012149338,0.9999070156079072,-0.012388418,0.024297728,3.2568790708445216E-4,-43.23545731,15.50363766670227,-0.355995993,45,1.5,2.901481866836548,43.25699996948242,0,0,167.59999084472656,-86.9131046,40.4274963,9.936628795364529,-0.242537549,0.1234394481893882,-0.021226942,0.012980504409195138,6.695825650240295E-4,Classroom
203,-103.3196024,45.42462524414063,-35.95217934,-101.7777778,9.902502087713446,-0.24733481,0.12407250051359528,-0.017379474,-0.002538435,1.3052628746310484E-4,-1.63E-05,-2.97E-05,9.340624261683631E-5,6.834299402655534E-5,-0.00624563,-0.012339251,0.9999043449614812,-0.012492505,0.024679510411128258,1.7465839374001484E-5,-43.25961327,15.484605674743653,-0.37307599,45,1.5,2.901481866836548,43.25699996948242,0,0,167.59999084472656,-86.9131046,40.4274963,9.902502087713446,-0.24733481,0.12407250051359528,-0.021243251,0.012950851618158586,7.042535094688963E-4,Classroom
204,-103.3065479,45.44231502532959,-35.98316746,-98.5,9.893906464,-0.247128631,0.12088400704189411,-0.0055237,4.3838348203492395E-4,-0.002017349,-1.11E-04,4.151389138429489E-5,-1.33E-05,-4.47E-05,-0.006205925,-0.01250389,0.9999025516139651,-0.012415959,0.025007403265793347,2.4465891195373863E-4,-43.24631542,15.502539644241333,-0.40198999,45,1.5,2.901481866836548,43.25699996948242,0,0,167.59999084472656,-86.9131046,40.4274963,9.893906464,-0.247128631,0.12088400704189411,-0.02133814,0.013022018325270958,5.975035047475068E-4,Classroom
205,-103.3286298,45.46854511260986,-36.01366734,-116.6666667,9.895184257655467,-0.248101441,0.12218495798342437,-2.58E-04,-4.89E-05,-9.43E-05,1.378854317364545E-4,1.779166773612638E-5,5.7822911100443994E-5,-1.34E-04,-0.006174745,-0.012532988,0.9999023699066014,-0.012355841,0.025064515166924994,4.231282664654077E-4,-43.26888531,15.529257650375365,-0.43407599,45,1.5,2.901481866836548,43.25699996948242,0,0,167.59999084472656,-86.9131046,40.4274963,9.895184257655467,-0.248101441,0.12218495798342437,-0.021089056,0.012998296065454922,6.686701768222581E-4,Classroom
206,-103.3175283,45.46842285,-36.00463928,-129.1111111,9.899590666477497,-0.246561393,0.12413630355149508,0.002361288,5.652156559008997E-4,0.001102367,-2.30E-04,1.8384723327330595E-4,-1.48E-06,-1.01E-05,-0.00621804,-0.012470566,0.9999028965107446,-0.012439313,0.024941181800174482,1.7530783242743816E-4,-43.2574173,15.528525657653809,-0.424803987,45,1.5,2.901481866836548,43.25699996948242,0,0,167.59999084472656,-86.9131046,40.4274963,9.899590666477497,-0.246561393,0.12413630355149508,-0.021456751,0.013164352,6.09364617136714E-4,Classroom
207,-103.2679957,45.43523906707764,-36.01622917,-112.25,9.902345286989675,-0.246205187,0.12351785335707867,0.00128946,3.4695386307910807E-4,0.001443855,-2.30E-04,8.895833642014022E-5,-1.48E-06,-1.59E-04,-0.006166069,-0.012465112,0.9999032524025556,-0.012339065,0.024928465087726278,4.7272183864266676E-4,-43.20751942,15.495097646713257,-0.434807985,45,1.5,2.203444480895996,43.215999603271484,0,0,167.39999389648438,-86.9131194,40.4274957,9.902345286989675,-0.246205187,0.12351785335707867,-0.021456751,0.013069462759004346,6.09364616571591E-4,Classroom
208,-103.2722664,45.47318115234375,-35.98524136,-118.8888889,9.913211609553365,-0.243731056,0.12487978726914785,0.007528888,0.002205365,-2.35E-04,-3.13E-04,-2.97E-05,1.0526735161530596E-4,3.013160714734784E-4,-0.006326521,-0.012429736,0.9999026742953698,-0.012648571,0.024863444,-4.45E-04,-43.21215549,15.533161668777465,-0.405283988,45,1.5,2.203444480895996,43.215999603271484,0,0,167.39999389648438,-86.9131194,40.4274957,9.913211609553365,-0.243731056,0.12487978726914785,-0.021539779,0.012950851627200553,7.161146195976118E-4,Classroom
209,-103.234202,45.47501117706299,-35.92741306,-114.375,9.951630509015425,-0.243452281,0.12484203680481726,0.018562946504759557,9.45200908531263E-5,2.163263779242062E-4,-3.13E-04,2.4315279239372722E-4,-4.89E-05,4.828999188809125E-5,-0.006238873,-0.012231288,0.9999056857766457,-0.012479421,0.024463364311936988,5.60731833634534E-5,-43.17396923,15.534503631591797,-0.347455991,45,1.5,2.203444480895996,43.215999603271484,0,0,167.39999389648438,-86.9131194,40.4274957,9.951630509015425,-0.243452281,0.12484203680481726,-0.021539778,0.013223657230801374,5.619201687101311E-4,Classroom
210,-103.2366418,45.477085227966306,-36.00634716,-115.5555556,9.959880467757438,-0.239340342,0.1230822667768858,0.005549266,9.596501835263693E-4,1.5424937009811401E-4,-1.64E-04,2.3494125567734815E-4,7.048235980059522E-5,-1.06E-04,-0.006185557,-0.012081102,0.9999078724246758,-0.012376455,0.024161031,3.609692594444333E-4,-43.17616528,15.53645565032959,-0.426023988,45,1.5,2.203444480895996,43.215999603271484,0,0,167.39999389648438,-86.9131194,40.4274957,9.959880467757438,-0.239340342,0.1230822667768858,-0.021391401,0.013215445734273929,6.813296288153372E-4,Classroom
211,-103.2610419,45.50709690093994,-35.96474533,-121.125,9.955312646,-0.23890766,0.1263462626962986,-0.001577479,9.001860919507961E-4,0.00296686,-1.11E-04,2.905972396900642E-4,1.0378458152877764E-5,-8.54E-05,-0.006192715,-0.012042552,0.9999082973859843,-0.012390261,0.024084181696610543,3.2003385171953854E-4,-43.20141933,15.567321586608887,-0.385031991,45,1.5,2.203444480895996,43.215999603271484,0,0,167.39999389648438,-86.9131194,40.4274957,9.955312646,-0.23890766,0.1263462626962986,-0.02133814,0.013271102,6.212257278305523E-4,Classroom
212,-103.2965443,45.45634521484375,-36.04245937,-118.7777778,9.944640798476136,-0.242552067,0.12242888633921309,-0.004449548,-0.001066134,-4.10E-04,-2.06E-04,3.143194633382327E-4,-8.45E-05,-1.50E-04,-0.006170112,-0.012135549,0.9999072765841067,-0.012346665,0.024269429858303763,4.493073830832428E-4,-43.23631126,15.516203699111939,-0.462867987,45,1.5,2.203444480895996,43.215999603271484,0,0,167.39999389648438,-86.9131194,40.4274957,9.944640798476136,-0.242552067,0.12242888633921309,-0.021433029,0.013294823910787847,5.263368338030012E-4,Classroom
213,-103.2695817,45.495506858825685,-36.01866917,-125.5,9.948191918,-0.242132369,0.12386883594668828,6.178513313960103E-4,7.104086644441178E-4,0.001237189,-8.75E-05,8.89583386806319E-5,1.0378453631894392E-5,-2.22E-04,-0.006144749,-0.012199295,0.9999066724360568,-0.01229774,0.024396009833633322,5.943885289790398E-4,-43.20983734,15.555487623214722,-0.439077983,45,1.5,2.203444480895996,43.215999603271484,0,0,167.39999389648438,-86.9131194,40.4274957,9.948191918,-0.242132369,0.12386883594668828,-0.021314417,0.013069462808735163,6.212257255700607E-4,Classroom
