seconds_elapsed,accelerometer_z,accelerometer_y,accelerometer_x,totalAcceleration_z,totalAcceleration_y,totalAcceleration_x,orientation_qz,orientation_qy,orientation_qx,orientation_qw,orientation_roll,orientation_pitch,orientation_yaw,microphone_dBFS,gyroscope_z,gyroscope_y,gyroscope_x,location_bearingAccuracy,location_speedAccuracy,location_verticalAccuracy,location_horizontalAccuracy,location_speed,location_bearing,location_altitude,location_longitude,location_latitude,magnetometerUncalibrated_z,magnetometerUncalibrated_y,magnetometerUncalibrated_x,gyroscopeUncalibrated_z,gyroscopeUncalibrated_y,gyroscopeUncalibrated_x,magnetometer_z,magnetometer_y,magnetometer_x,accelerometerUncalibrated_z,accelerometerUncalibrated_y,accelerometerUncalibrated_x,class
0,-0.009077951,1.808471585574903E-4,5.200777791048351E-4,9.929535551768977,-0.254376014,-0.199910119,0.9748455411509463,-0.011968597,-0.010438739,0.047661526,0.020164124765678457,0.025570759,-2.993301944,-123.75,2.330864510057788E-4,5.626223987507585E-5,8.198213212094025E-4,45,1.5,1,15.664999961853027,0,0,160.1999969482422,-86.9155033,40.3848435,-104.9706996,-12.39979445,-31.05771374,-0.021299279,0.012884054872158327,9.725331167972303E-4,-44.8908143,-42.33171158,4.5240648806095125,9.928680126483624,-0.25401883,-0.199716329,Drive
1,-0.022511005,-0.006907832,6.219916618787326E-5,9.884474504341199,-0.260103305,-0.200953544,0.9990067780017853,-0.012343677,-0.010654822,0.041467144,0.02027278,0.025549253860775094,-3.058882544,-110.7777778,2.2319418461008283E-4,9.397648122663108E-5,0.001292177,45,1.5,1,15.664999961853027,0,0,160.1999969482422,-86.9155033,40.3848435,-104.8269121,-12.35469575,-30.98653547,-0.021309171,0.012921769136133103,0.001444889,-44.76692303,-42.29459301,4.593787899017334,9.884474504341199,-0.260103305,-0.200953544,Drive
2,-0.007328682,-0.005217684,-0.001746033,9.874136443277008,-0.256859636,-0.205088713,0.9990023744916453,-0.012289562,-0.010806193,0.041550235,0.020577685708559834,0.025455345209796452,-3.058719042,-127.375,2.817013154023336E-5,2.817012362851246E-5,7.057361535330131E-4,45,1.5,1,15.664999961853027,0,0,160.1999969482422,-86.9155033,40.3848435,-104.8435041,-12.31223971,-30.98812132,-0.021504195,0.012855962759733778,8.584479439678123E-4,-44.7836372,-42.25201504,4.591469902992248,9.874136443277008,-0.256859636,-0.205088713,Drive
3,0.009538076,-0.002849758,3.675649177680895E-4,9.893467884619259,-0.25689158,-0.202788815,0.9989875016860592,-0.0124041,-0.010802993,0.041873280392977795,0.020553543,0.025690609082868954,-3.058074317,-125.8888889,6.375347492420703E-5,-1.02E-04,5.278194761717493E-4,76.98498535,2.6084861755371094,1.0340080261230469,10.968999862670898,1.1930426359176636,16.53521156311035,160.1999969482422,-86.9154848,40.3848148,-104.9124342,-12.32419576,-30.91504337,-0.021468612,0.012725490488980001,6.805312666065484E-4,-44.85268906,-42.26445911,4.665157909393311,9.893467884619259,-0.25689158,-0.202788815,Drive
4,0.016595516390013464,-0.001043706,5.895774630666937E-4,9.924783660370169,-0.252593792,-0.206389665,0.9989867094651009,-0.012240964,-0.010964356,0.041898406,0.020888984167170756,0.025378612313166404,-3.058025057,-125.375,-7.86E-05,6.33086829482424E-4,6.227083775458984E-4,94.15352630615234,2.8376927375793457,1.0440080165863037,10.13700008392334,0.5654586553573608,21.111373901367188,160.1999969482422,-86.9155049,40.3847863,-104.8330123,-12.34420368,-30.97897142,-0.021610945,0.013460879422073226,7.75420179283156E-4,-44.77290112,-42.28397923,4.600131927,9.924783660370169,-0.252593792,-0.206389665,Drive
5,0.005643678,-0.002228524,0.002590065,9.937231467,-0.249609939,-0.205667708,0.9989875630267615,-0.01199885,-0.010991251,0.04194118,0.020961790155727886,0.024897945,-3.057935543,-140.7777778,-7.41E-06,1.58642362735406E-4,7.650417126534344E-4,98.07551574707031,2.993008613586426,1.0540080070495605,7.268000126,0.28506213426589966,112.5768051147461,160.1999969482422,-86.9155211,40.3847553,-104.8953541,-12.39580967,-30.9356613,-0.021539778,0.012986435,9.177535166511836E-4,-44.83560917,-42.33582935,4.644417934417724,9.937231467,-0.249609939,-0.205667708,Drive
6,-0.019940839,-0.00686546,6.391854540815632E-4,9.895407722991648,-0.257077431,-0.203485754,0.9989753400237815,-0.012191898,-0.010840299,0.042214576661297416,0.0206371,0.025276720107903758,-3.057388021,-113.125,4.003124505968638E-5,-1.50E-04,6.22708373024915E-4,96.40906524658203,3.1532998085021973,1.0640079975128174,7.228000164031982,0.42869648337364197,135.95657348632812,160.1999969482422,-86.9155361,40.3847416,-104.9934424,-12.43911972,-30.90442942,-0.021492334,0.012678046028120714,7.754201685458205E-4,-44.93320927,-42.37840736,4.674673914909363,9.895407722991648,-0.257077431,-0.203485754,Drive
7,-0.010457131,-0.005251972,0.001500587,9.876648421426422,-0.259522524,-0.201185856,0.9989682273957335,-0.012430432,-0.010774809,0.042330296258035215,0.020483245783783858,0.025750254615417963,-3.057159044,-112,9.933680304986181E-5,-1.73E-04,6.820139321453363E-4,94.90242767333984,1.583445668,1.0740079879760742,6.988999843597412,0.2340855896472931,11.533625602722168,160.1999969482422,-86.915508,40.3847224,-104.9747762,-12.46425175,-30.97213934,-0.021433029,0.012654324,8.347257225801354E-4,-44.91466515,-42.40390514,4.6089159107208255,9.876648421426422,-0.259522524,-0.201185856,Drive
8,-0.004016265,-0.003692665,7.453239658503857E-4,9.871319761554014,-0.261288102,-0.201511094,0.9989648565505315,-0.012548031,-0.010773542,0.042375380227577336,0.020469674786317695,0.025986063,-3.057070896,-94.77777778,1.6309020281272026E-5,1.1119791543906898E-4,6.582917062366761E-4,45,2.0120139122009277,1.084007978439331,6.914000034332275,0.18863849341869354,13.637367248535156,160.1999969482422,-86.9155141,40.3847133,-104.9143862,-12.44082775,-30.95017935,-0.021516056,0.012938990533460402,8.110034944109835E-4,-44.85451893,-42.38072514,4.629045920372009,9.871319761554014,-0.261288102,-0.201511094,Drive
9,7.156631321582979E-4,-0.003489772,-7.13E-04,9.873512221771536,-0.260681185,-0.202091877,0.998963412,-0.012576988,-0.010749051,0.042407107,0.020417451062827434,0.026042509697450016,-3.057007262,-91.375,-1.02E-04,-4.30E-05,6.227083707644233E-4,95.56501007080078,2.3152105808258057,1.094007968902588,7.053999900817871,0.37090614438056946,22.28680992126465,160.1999969482422,-86.9155186,40.3847188,-104.9404938,-12.41886776,-30.95139938,-0.021634667,0.012784796088789274,7.754201679806976E-4,-44.880261,-42.35925339,4.629289927482605,9.873512221771536,-0.260681185,-0.202091877,Drive
10,-7.90E-04,-0.00639507,-7.47E-04,9.873117252460961,-0.265751414,-0.202463577,0.9989612744404719,-0.012666649,-0.01074072,0.042432542,0.020392604691621203,0.026221479002672892,-3.056957754,-94,-5.87E-05,1.0572356852487876E-4,7.518120289135438E-4,67.82257080078125,2.3025639057159424,1.1040079593658447,6.788000106811523,1.3630928993225098,3.308590888977051,160.1999969482422,-86.9155149,40.3847406,-104.9529382,-12.41947776,-30.96860134,-0.021591101,0.012933516145074883,9.045238067091515E-4,-44.89294922,-42.35876518,4.610623941421509,9.873117252460961,-0.265751414,-0.202463577,Drive
11,9.049813724258571E-4,-0.003384489,0.001891682,9.875681469741377,-0.260303675,-0.200674768,0.9989630857717644,-0.012556789,-0.010795917,0.042408689,0.020512802,0.026006134841771958,-3.057004956,-80.625,-2.68E-04,1.2305904873782426E-4,4.6851391705132804E-4,63.46324920654297,2.4667792320251465,1.0637680292129517,6.539999961853027,1.7512544393539429,8.724746704101562,160.1999969482422,-86.915509,40.3847782,-104.9258542,-12.3629917,-30.90650333,-0.021800723,0.012950851600074652,6.212257035302667E-4,-44.86586514,-42.30362125,4.672599940299988,9.875681469741377,-0.260303675,-0.200674768,Drive
12,0.017312124,-5.92E-04,0.002962672,9.905765968619042,-0.256273049,-0.200233374,0.9989632651643846,-0.012475997,-0.010810371,0.042424601,0.020548077842708932,0.025846243,-3.056971971,-89.11111111,-1.62E-04,5.975034923148025E-4,7.531806076108251E-4,91.71468353271484,1.2453112602233887,1.0737680196762085,6.100999832,0.2962586581707001,0.1472429633140564,160.1999969482422,-86.9155063,40.3847935,-104.8722963,-12.37128772,-30.95652342,-0.021693973,0.013425296082079988,9.058923969153785E-4,-44.81255116,-42.3111853,4.624165868759155,9.905765968619042,-0.256273049,-0.200233374,Drive
13,0.013533786662573953,0.001968748,0.003899104,9.933054072185627,-0.249501127,-0.199675822,0.9989645243848412,-0.01222409,-0.010787345,0.042474252434031474,0.020521972744354924,0.025341934587770294,-3.056867359,-79.625,-3.04E-04,3.1283682888120557E-4,1.957083450973902E-4,45,1.3656500577926636,1.0837680101394653,5.689000129699707,0.30367687344551086,0.25323614478111267,160.1999969482422,-86.915504,40.3847988,-104.8467985,-12.39666372,-30.95896341,-0.021836306,0.013140629384739018,3.484201411834186E-4,-44.78693115,-42.33656109,4.621481900215149,9.933054072185627,-0.249501127,-0.199675822,Drive
14,0.002737712,-0.001446577,0.004202946,9.932983572666462,-0.252842551,-0.201043117,0.9989687169639809,-0.012219853,-0.01085977,0.042357644,0.020670074155753098,0.025337173,-3.057102595,-75.11111111,-2.56E-04,6.212257419586254E-4,5.39680599298292E-4,45,1.0278618335723877,1.0937680006027222,6.011000156402588,0.5831670165061951,28.617645263671875,160.1999969482422,-86.9154973,40.3848053,-104.8211778,-12.35091372,-30.98470539,-0.021788862,0.013449018,6.923923931238286E-4,-44.76131123,-42.29081116,4.595739936828613,9.932983572666462,-0.252842551,-0.201043117,Drive
15,-0.008112,-0.006569887,2.8701748662781945E-4,9.916652707220281,-0.260132345,-0.204902862,0.9989690184593201,-0.012282474,-0.010851311,0.042335238,0.020648451,0.025461151,-3.057148366,-80.25,-2.09E-04,5.026146056338494E-4,7.531806053503335E-4,45,0.3889729976654053,1.103767991065979,6.631999969482422,0.513123631,41.130332946777344,160.1999969482422,-86.9154928,40.3848078,-104.8702224,-12.38019373,-30.98189938,-0.021741417,0.013330407214613215,9.05892392959518E-4,-44.810355,-42.32106731,4.597813892364502,9.916652707220281,-0.260132345,-0.204902862,Drive
16,0.001135317,-0.003337828,0.001584455,9.921635822185035,-0.254556835,-0.203090822,0.9989683628082275,-0.012262919,-0.010840387,0.042359239,0.020627642864162483,0.025421650917495337,-3.05709969,-87.44444444,-1.73E-04,1.9422569820765875E-4,4.4479169340315953E-4,45,0.37947332859039307,1.1137679815292358,7.466000080108643,0.19521158933639526,4.756955146789551,160.1999969482422,-86.9154958,40.3848081,-104.8885223,-12.36396775,-30.97823938,-0.021705834,0.013022018302666041,5.975034832728358E-4,-44.82816708,-42.30325527,4.601473922729492,9.921635822185035,-0.254556835,-0.203090822,Drive
17,-0.014223951,-0.002172546,0.002663223,9.896229559,-0.256322414,-0.200674768,0.9989668865805691,-0.012339271,-0.010799109,0.04238224,0.020538141661621993,0.025571205879299386,-3.057054003,-78.375,-1.62E-04,3.246979480518878E-4,2.194305687455587E-4,45,0.6293647885322571,1.1237679719924927,7.815999984741211,0.22683098912239075,338.27984619140625,160.1999969482422,-86.9154978,40.3848102,-104.8738823,-12.38421971,-30.96128136,-0.021693973,0.01315249,3.7214235635474324E-4,-44.81364902,-42.3241172,4.618797917366027,9.896229559,-0.256322414,-0.200674768,Drive
18,-0.008620364,-0.002830099,0.00266663,9.877516663,-0.260411119,-0.202138339,0.998965801,-0.012544332,-0.010887434,0.042324915,0.020698956910122947,0.02598725,-3.057174812,-81.77777778,-6.67E-05,2.891146137098809E-4,7.769028357799771E-4,45,0.32572993636131287,1.1337679624557495,8.555999755859375,0.28763771057128906,266.6093444824219,160.1999969482422,-86.9155032,40.3848083,-104.8898647,-12.41789168,-30.94615332,-0.021599084,0.013116907124922982,9.296146149123178E-4,-44.83011917,-42.35766724,4.632949938774109,9.877516663,-0.260411119,-0.202138339,Drive
19,-3.59E-04,-0.005031966,3.5952819654574763E-4,9.880043140892843,-0.263497978,-0.20304436,0.9989632878165978,-0.012643958,-0.010845233,0.042365583,0.020605165,0.026183611462609127,-3.057094129,-76.375,-3.17E-04,2.93676567357929E-4,1.5271181697384096E-4,45,0.2657065987586975,1.1437679529190063,9.201999664,0.35974255204200745,262.6781921386719,160.1999969482422,-86.9155081,40.3848077,-104.860828,-12.38995371,-30.95261946,-0.021849536,0.013121469129915707,3.0542360708260763E-4,-44.80071693,-42.33021725,4.627703895568848,9.880043140892843,-0.263497978,-0.20304436,Drive
20,0.003573612,-7.97E-04,0.004197642,9.887825614040338,-0.258747179,-0.19962936,0.9989636835542698,-0.012594507,-0.010850914,0.042369528,0.020620569315494844,0.026085357407777055,-3.057085486,-77.88888889,-9.04E-05,6.56809085342599E-4,8.243472808158224E-4,45,0.5470831990242004,1.1537679433822632,9.118000030517578,0.26152220368385315,273.66192626953125,160.1999969482422,-86.9155103,40.3848083,-104.8577785,-12.41227972,-30.97970331,-0.021622806,0.013484601618595493,9.77059068425007E-4,-44.79839924,-42.3525433,4.600375919342041,9.887825614040338,-0.258747179,-0.19962936,Drive
21,0.003011416,-0.003705709,0.002881147,9.891928830193084,-0.260155577,-0.200210142,0.9989639717398338,-0.012513399,-0.010805822,0.042398327,0.020536506910202573,0.025920064,-3.057025162,-89.88888889,-2.45E-04,3.365590474432678E-4,5.040972570445641E-4,45,0.44271886348724365,1.163767934,8.751000404,0.24322856962680817,262.0235290527344,160.1999969482422,-86.915513,40.3848076,-104.8809581,-12.40471579,-30.96750345,-0.021777001,0.013164351635513086,6.568090508701008E-4,-44.82096924,-42.34424736,4.612697920799255,9.891928830193084,-0.260155577,-0.200210142,Drive
22,0.016904367983919904,5.469248422141214E-4,0.002232562,9.919948651952652,-0.254443584,-0.200349531,0.998963263,-0.012423493,-0.01076239,0.042452433,0.020455854700751674,0.025737843340606366,-3.056914056,-79.375,-1.62E-04,3.7214238178527473E-4,5.75263918947103E-4,45,0.452216774,1.1737680435180664,8.480999946594238,0.14085157215595245,267.5461730957031,160.1999969482422,-86.9155137,40.3848077,-104.8416743,-12.36872566,-30.99409941,-0.021693973,0.013199934957422388,7.279757088167792E-4,-44.78144135,-42.30837948,4.586345858573914,9.919948651952652,-0.254443584,-0.200349531,Drive
23,0.014583615423406212,-0.001832471,0.001734529,9.951300768,-0.254401338,-0.200536944,0.9989642090010411,-0.012251715,-0.010717712,0.042491247533883864,0.020380031516395725,0.025391583755901715,-3.056832064,-79.33333333,-1.14E-04,3.8400350265132573E-4,3.973472528882976E-4,45,0.8132035136222839,1.1837680339813232,8.343999862670898,0.29899322986602783,313.00616455078125,160.1999969482422,-86.915517,40.3848111,-104.8702224,-12.37799779,-31.03740946,-0.021646529,0.013211796091851389,5.500590416277279E-4,-44.81011101,-42.31777306,4.541937894821167,9.951300768,-0.254401338,-0.200536944,Drive
24,0.00346431,-9.98E-05,0.003828215,9.954792708,-0.250029639,-0.199350584,0.9989670758108491,-0.012111992,-0.010731404,0.042460541,0.020419938,0.025112915,-3.056891339,-75.125,-2.92E-04,4.0772573534146096E-4,4.922361429599882E-4,45,0.7558438777923584,1.193768024,8.272999763,0.3560335040092468,315.25189208984375,160.1999969482422,-86.9155203,40.3848137,-104.8328899,-12.36164973,-30.9803134,-0.021824445,0.013235518279331691,6.449479345250332E-4,-44.77277912,-42.30166908,4.599277882575989,9.954792708,-0.250029639,-0.199350584,Drive
25,-0.001709225,-0.006572905,0.003011605,9.949013922978374,-0.25568065,-0.201116163,0.9989690161445766,-0.012089042,-0.010767989,0.042411887,0.020496229957608345,0.025069149,-3.056989253,-74.44444444,-1.73E-04,7.87281307495805E-4,6.108472589403391E-4,45,0.2751363217830658,1.203768014907837,8.369000434875488,0.1987501084804535,314.03118896484375,160.1999969482422,-86.915521,40.3848141,-104.8331345,-12.37641175,-31.03789736,-0.021705834,0.013615073880307305,7.635590465495236E-4,-44.77290134,-42.31667526,4.542547874450683,9.949013922978374,-0.25568065,-0.201116163,Drive
26,-0.002684362,9.329724080354264E-4,0.003947253,9.945773143212772,-0.248182751,-0.199513204,0.9989704235086163,-0.012112024,-0.010785363,0.04236778,0.020530144,0.025115631,-3.057078431,-72.875,-1.26E-04,4.0772572234363375E-4,3.3804170280984306E-4,0,0.9521029591560364,1.2137680053710938,8.588999748,0.072505534,0,160.1999969482422,-86.9155199,40.3848143,-104.8593645,-12.39092975,-31.01313147,-0.02165839,0.013235518306457592,4.907534938097651E-4,-44.79937515,-42.33082726,4.566703896522522,9.945773143212772,-0.248182751,-0.199513204,Drive
27,-0.00970109,-0.003242655,0.003845033,9.924824362819635,-0.254577164,-0.202184802,0.9989694223820584,-0.012137555,-0.010843684,0.042368836,0.020644563440124965,0.025171575452951553,-3.05707826,-88,-3.04E-04,6.686701926457E-4,4.6851391479083633E-4,45,0.518652081,1.1100280284881592,8.222999572753906,0.10623015463352203,20.42548942565918,160.1999969482422,-86.915519,40.3848154,-104.8559478,-12.40874168,-30.93566133,-0.021836306,0.013496462743982527,6.212257199188315E-4,-44.79608089,-42.34924911,4.643197937011719,9.924824362819635,-0.254577164,-0.202184802,Drive
28,0.003315146,-0.003395979,0.003009712,9.934453714241101,-0.253685662,-0.203369598,0.9989703555519764,-0.01214482,-0.010911649,0.042327725471785434,0.020780807880398173,0.025191008328245237,-3.05716239,-92.875,-2.47E-04,7.400649500106318E-4,3.17170689903343E-4,0,0.5470831990242004,1.120028018951416,7.866000175476074,0.097581349,0,160.1999969482422,-86.9155181,40.3848159,-104.8687582,-12.3521337,-30.93395338,-0.021779054,0.013567857542791618,4.6988248840744537E-4,-44.80913506,-42.29251911,4.646979928016663,9.934453714241101,-0.253685662,-0.203369598,Drive
29,0.001188121,-0.002075901,0.003983616,9.938771877473998,-0.251130222,-0.201813102,0.9989691249375204,-0.012076613,-0.010873241,0.042386374,0.020708278110883768,0.025052698,-3.057042726,-104.6666667,-2.33E-04,7.042534947757003E-4,5.752639234680863E-4,0,0.6389052867889404,1.1300280094146729,7.9120001792907715,0.053775765001773834,0,160.1999969482422,-86.9155178,40.3848159,-104.8344764,-12.36933574,-30.90467333,-0.02176514,0.013532046083975765,7.279757178587459E-4,-44.77412102,-42.30959927,4.675283908843994,9.938771877473998,-0.251130222,-0.201813102,Drive
30,-0.002661214,-0.002828857,0.003338732,9.930440523,-0.251638404,-0.202579734,0.998969348,-0.012068507,-0.010883623,0.042380755,0.020729851701016565,0.025037258,-3.05705408,-102.5,-7.86E-05,4.433090436878135E-4,5.396805902563252E-4,0,0.9455686211585999,1.1400279998779297,7.644999980926514,0.062181234,0,160.1999969482422,-86.9155172,40.3848164,-104.8191042,-12.34408168,-31.00007732,-0.021610945,0.013271101687139677,6.923923829516161E-4,-44.75923725,-42.28385735,4.578781909942627,9.930440523,-0.251638404,-0.202579734,Drive
31,0.0025082,-0.003311962,0.003355537,9.937488250362064,-0.251771985,-0.201232319,0.9989666579996498,-0.012050974,-0.010815024,0.042466216368003955,0.020592092961362263,0.02499817,-3.056880946,-80.77777778,-2.21E-04,5.381979631458961E-4,4.3293058610005867E-4,0,0.9550915956497192,1.1500279903411865,7.734000205993652,0.047338087,0,160.1999969482422,-86.9155173,40.3848168,-104.8565581,-12.40471573,-30.94810543,-0.021753279,0.013365990527480552,5.856423867070704E-4,-44.79644691,-42.34485729,4.632583899497986,9.937488250362064,-0.251771985,-0.201232319,Drive
32,-0.017246793,-0.004819472,0.003704307,9.905190027677095,-0.257869779,-0.20256164,0.9989685775006859,-0.012265201,-0.010929448,0.042330492,0.020806207095535056,0.02543313,-3.057159537,-74.88888889,-2.09E-04,5.619201811428354E-4,3.85486143324705E-4,0,0.9455686211585999,1.1600279808044434,7.692999839782715,0.056070603,0,160.1999969482422,-86.9155169,40.3848173,-104.7960461,-12.39263773,-30.95859726,-0.021741417,0.013389712746607737,5.381979354548729E-4,-44.73617924,-42.33265709,4.6211159229278564,9.905190027677095,-0.257869779,-0.20256164,Drive
33,-0.011702843,-0.005083165,0.00408398,9.882247211863694,-0.261691745,-0.202091877,0.998965292,-0.012552199,-0.010956596,0.042316803401245655,0.020836751,0.026008632938260015,-3.057192999,-95.625,-1.73E-04,7.991423984103411E-4,7.057361670959633E-4,0,0.9265527725219727,1.1700279712677002,8.019000053405762,0.054915398359298706,0,160.1999969482422,-86.9155164,40.3848176,-104.8966965,-12.43802173,-30.89369337,-0.021705834,0.013626935014736306,8.58447952444656E-4,-44.83768326,-42.37877361,4.686263928413391,9.882247211863694,-0.261691745,-0.202091877,Drive
34,6.800346004152761E-4,-0.001616842,0.003471421,9.886777294492259,-0.259810011,-0.201627251,0.9989635666597236,-0.012626339,-0.010932084,0.042341352,0.020780923025845326,0.026155218482017517,-3.057144619,-71,-1.14E-04,4.907535045471006E-4,5.515416975594261E-4,0,0.44271886348724365,1.180027961730957,8.298999786376953,0.035229128,0,160.1999969482422,-86.9155163,40.3848177,-104.7943382,-12.42911569,-31.0260634,-0.021646529,0.013318546084705198,7.042535196411089E-4,-44.73459324,-42.36901325,4.554503903388977,9.886777294492259,-0.259810011,-0.201627251,Drive
35,0.002591559,-0.00276408,0.00308046,9.890714978708804,-0.258180917,-0.20125555,0.9989640487050547,-0.012533161,-0.010854922,0.042377925,0.020633526,0.025963276877854633,-3.057067651,-82.75,-1.14E-04,4.907535011563631E-4,3.9734724158583916E-4,0,0.9330058693885803,1.1900279521942139,8.395999908447266,0.019807256758213043,0,160.1999969482422,-86.9155163,40.3848178,-104.8382582,-12.42460171,-30.98311941,-0.021646529,0.013318546111831099,5.500590421928509E-4,-44.77790306,-42.36425545,4.5964719104766845,9.890714978708804,-0.258180917,-0.20125555,Drive
36,0.001378837,-0.003501706,0.00306986,9.894553934486167,-0.26104998,-0.202370652,0.9989678535646606,-0.012477526,-0.01090805,0.042290287,0.020746704,0.025854746,-3.057243477,-73.88888889,-1.62E-04,7.754202047136875E-4,5.396805947773086E-4,0,0.15556348860263824,1.2000279426574707,8.105999946594238,0.012619378045201302,0,160.1999969482422,-86.9155164,40.3848179,-104.8968179,-12.40398374,-30.92407137,-0.021693973,0.013603212736836337,6.923924145984996E-4,-44.83731686,-42.34412525,4.656373896598816,9.894553934486167,-0.26104998,-0.202370652,Drive
37,0.013590785173269419,0.002062416,0.004696269,9.915438929807793,-0.253938304,-0.199652591,0.9989652318450121,-0.012448827,-0.010852192,0.042375578,0.020635207309029423,0.025794475,-3.057070705,-73,-1.88E-04,6.108472886038586E-4,2.8192950860382273E-4,0,0.4527692496776581,1.2100279331207275,7.6539998054504395,0.020583702251315117,0,160.1999969482422,-86.9155166,40.3848181,-104.8032441,-12.38177969,-30.90760141,-0.021720318,0.013438639857877906,4.3464129871258943E-4,-44.74325508,-42.3219215,4.672111926078796,9.915438929807793,-0.253938304,-0.199652591,Drive
38,0.016624599,-0.001924099,0.003265759,9.951125098663626,-0.254115442,-0.200442455,0.9989653027173385,-0.01224137,-0.010779144,0.0424529,0.020504668,0.025375331905715674,-3.056910205,-73.88888889,-1.50E-04,2.6539237649876227E-4,4.0920836019139845E-4,0,0.8095059990882874,1.220028042793274,7.138999938964844,0.010379248298704624,0,160.1999969482422,-86.9155166,40.3848181,-104.8017803,-12.41447569,-31.01996336,-0.021682112,0.013093184996215463,5.619201540169351E-4,-44.74154705,-42.35449532,4.561335911750794,9.951125098663626,-0.254115442,-0.200442455,Drive
39,0.002248662,-0.00213799,0.002331167,9.952417364398253,-0.252376,-0.19962936,0.9989626372902138,-0.012126347,-0.01067183,0.042575784063744314,0.020296753158123747,0.025138898761671722,-3.056659363,-84.77777778,-1.93E-05,4.4330904029707597E-4,6.108472634613225E-4,0,0.3047950267791748,1.2300280332565308,6.980999946594238,0.011545655317604542,0,160.1999969482422,-86.9155164,40.3848182,-104.7960464,-12.36994575,-30.92419344,-0.02155164,0.013271101641929845,7.635590533309987E-4,-44.73630108,-42.30984314,4.656251921653747,9.952417364398253,-0.252376,-0.19962936,Drive
40,-0.001221435,-0.004252642,0.002041635,9.950303299913129,-0.25318619,-0.20034953,0.9989634781207853,-0.012058519,-0.010689158,0.042571058225573846,0.020337229033986343,0.025004741021441023,-3.05666802,-90.75,-1.26E-04,4.1958681947452204E-4,6.345694848489992E-4,0,0.5547071099281311,1.2400280237197876,6.572999954223633,0.016372781,0,160.1999969482422,-86.9155165,40.3848184,-104.803488,-12.38946571,-30.93407543,-0.02165839,0.013247379400197741,7.872812820652735E-4,-44.74362118,-42.32911949,4.647467885017395,9.950303299913129,-0.25318619,-0.20034953,Drive
41,-0.002817524,-0.00366062,7.749353219004511E-4,9.943964142065782,-0.25346089,-0.203228868,0.9989654288708585,-0.012069729,-0.01075366,0.042505415,0.020466864615389446,0.025031255,-3.056801268,-86,-9.04E-05,3.72142386871381E-4,6.34569487109491E-4,0,0.7877182364463806,1.2500280141830444,6.1620001792907715,0.008058265,0,160.1999969482422,-86.9155165,40.3848184,-104.8430164,-12.42069769,-31.02350138,-0.021622806,0.013199934966464355,7.872812882816256E-4,-44.78266113,-42.36083927,4.557187886238098,9.943964142065782,-0.25346089,-0.203228868,Drive
42,-0.005032539,-0.004050865,0.004875574,9.934871905058333,-0.251777794,-0.198607183,0.9989674513779797,-0.012052988,-0.010789022,0.042453754,0.020540252888520943,0.024999744412534445,-3.056905272,-90.375,5.1892357448893554E-5,4.907534938097651E-4,7.769028312589937E-4,0,0.5348831415176392,1.1095980405807495,5.979000091552734,0.021414056420326233,0,160.1999969482422,-86.9155164,40.3848187,-104.9020639,-12.40483778,-30.97860537,-0.021480473,0.013318546102789132,9.296146166076865E-4,-44.84195301,-42.34485729,4.601961894035339,9.934871905058333,-0.251777794,-0.198607183,Drive
43,0.00158297,-9.74E-04,0.002631581,9.938539495745909,-0.252042049,-0.202951434,0.9989681776287487,-0.012139781,-0.010829016,0.042401732750309326,0.020614199,0.025175492,-3.057012049,-80.33333333,-2.09E-04,6.093646346555245E-4,2.668750205628791E-4,0,1.0374006032943726,1.1195980310440063,6.172999858856201,0.011311855167150497,0,160.1999969482422,-86.9155164,40.3848187,-104.8361843,-12.43558171,-30.97933735,-0.021741417,0.013437157,4.1958680704181776E-4,-44.77595097,-42.37596733,4.599765906333923,9.938539495745909,-0.252042049,-0.202951434,Drive
44,9.933119838677563E-4,-0.001766296,0.002786404,9.939976914415082,-0.250354877,-0.202463578,0.9989703124009289,-0.012060284,-0.01086531,0.042364949,0.020694330732509928,0.025018954450644337,-3.057085111,-76.5,-1.93E-05,5.856424064863726E-4,8.006250481256872E-4,0,1.123610258102417,1.1295980215072632,6.566999912261963,0.010076054371893406,0,160.1999969482422,-86.9155164,40.3848188,-104.8415527,-12.38983171,-30.99031746,-0.021551639,0.013413435,9.533368396907321E-4,-44.78156315,-42.3299733,4.589639902114868,9.939976914415082,-0.250354877,-0.202463578,Drive
45,-7.16E-04,-0.004406893,0.002916686,9.938420453117889,-0.251838775,-0.204531162,0.9989736560478951,-0.012013965,-0.010944987,0.042278654,0.020859646222111092,0.024931316345351413,-3.057259025,-97.55555556,-4.30E-05,6.449479463926145E-4,6.464305966730836E-4,0,1.1524755954742432,1.139598012,7.354000091552734,0.006306576,0,160.1999969482422,-86.9155165,40.3848188,-104.8641222,-12.39446774,-30.99824743,-0.021575362,0.013472740570065176,7.991423876730056E-4,-44.80388908,-42.33412136,4.581831922531128,9.938420453117889,-0.251838775,-0.204531162,Drive
46,-0.001558075,-0.00207011,0.002806148,9.936312268,-0.248391832,-0.204415006,0.9989750024217826,-0.011942449,-0.010943925,0.042267514750934564,0.020863785300976954,0.024788094827762015,-3.057279944,-107.625,-8.22E-05,3.9940012300995964E-4,2.9367656679823995E-4,0,0.2973213791847229,1.1495980024337769,7.329999923706055,0.003156462,0,160.1999969482422,-86.9155165,40.3848188,-104.8470419,-12.35957573,-31.00898336,-0.021614595,0.013227192756648246,4.463883669814095E-4,-44.78754116,-42.29959518,4.570729908943176,9.936312268,-0.248391832,-0.204415006,Drive
47,-0.014986992,-0.004918546,0.001685436,9.911762561612916,-0.255921674,-0.203601911,0.9989694310623465,-0.012189156,-0.010863134,0.042349021266965034,0.020679579252033557,0.025275946585732758,-3.057119353,-83,-1.50E-04,3.6028127222168216E-4,1.95708360920832E-4,0,0.34885525703430176,1.1595979928970337,7.545000076293945,0.001282895,0,160.1999969482422,-86.9155165,40.3848188,-104.897428,-12.46608173,-30.94346941,-0.021682112,0.013188073895329121,3.484201479648936E-4,-44.83719505,-42.40585732,4.636975908279419,9.911762561612916,-0.255921674,-0.203601911,Drive
48,-0.012336416,-0.004113228,0.005928412,9.883344816930085,-0.259235037,-0.200303067,0.9989696289729146,-0.012433438,-0.010952256,0.042250624,0.02083974,0.025769576,-3.057323176,-72.44444444,-1.26E-04,7.872813233192467E-4,7.175972811805392E-4,0,0.7818567752838135,1.1695979833602905,7.743999958,0.007516816,0,160.1999969482422,-86.9155166,40.3848189,-104.8969403,-12.43277573,-30.93444141,-0.02165839,0.013615073844139437,8.703090620082487E-4,-44.83695122,-42.37206337,4.645271906852722,9.883344816930085,-0.259235037,-0.200303067,Drive
49,-0.002500932,-0.004659737,0.003489233,9.881910314837706,-0.261683034,-0.202788815,0.9989687007607766,-0.012543279,-0.010970929,0.042235357777296915,0.020868259762386675,0.025990325830949162,-3.057356277,-79.875,-1.97E-04,8.110035153205316E-4,5.159583688686485E-4,0,0.2126029133796692,1.1795979738235474,7.576000213623047,0.004308175,0,160.1999969482422,-86.9155166,40.3848189,-104.8248383,-12.40910774,-30.9687233,-0.021729556,0.013638796131081373,6.686701519568496E-4,-44.76533726,-42.34924934,4.610013885498047,9.881910314837706,-0.261683034,-0.202788815,Drive
50,0.0026364,-0.002597158,0.00335718,9.888886039,-0.258833234,-0.202377577,0.9989696526990354,-0.012515823,-0.010946938,0.042226832,0.020822839,0.025933256119634342,-3.057372218,-88,-2.09E-04,3.958646150405329E-4,4.9223615878343E-4,0,0.20518285036087036,1.1895979642868042,7.414000034332275,0.00567316,0,160.1999969482422,-86.9155167,40.3848189,-104.8654639,-12.43472775,-30.96786942,-0.021741418,0.013223657194633507,6.449479446972458E-4,-44.80559708,-42.37511318,4.6117218971252445,9.888886039,-0.258833234,-0.202377577,Drive
51,0.003156431,-0.002817897,0.00368709,9.893453357289138,-0.260019093,-0.202184802,0.9989689189253501,-0.012554279,-0.010934657,0.042236145,0.020794818412910386,0.026009259,-3.057353966,-71.125,-1.85E-04,6.330868599990618E-4,4.803750333963957E-4,0,0.5440587997436523,1.199597954750061,6.889999866485596,0.006962012,0,160.1999969482422,-86.9155167,40.384819,-104.9014544,-12.43972974,-30.90259945,-0.021717695,0.013460879449199126,6.330868215707031E-4,-44.84097698,-42.37950531,4.676869940757752,9.893453357289138,-0.260019093,-0.202184802,Drive
52,0.016707578,7.111042448617879E-4,0.003311825,9.922602783129053,-0.255358316,-0.202370652,0.9989685016928367,-0.0124674,-0.010933087,0.042272271,0.020798019612732442,0.025836279633843783,-3.057279987,-71.11111111,-1.02E-04,4.788924011998602E-4,3.617639174160448E-4,0,0.865332305,1.2095979452133179,6.798999786376953,0.003391316,0,160.1999969482422,-86.9155167,40.384819,-104.799584,-12.41679377,-30.88612944,-0.021634668,0.013306685,5.14475707285721E-4,-44.73922909,-42.3570573,4.692973909378051,9.922602783129053,-0.255358316,-0.202370652,Drive
53,0.013901784582045471,-2.19E-04,0.004067399,9.951517086584591,-0.252585082,-0.20323021,0.9989698818586406,-0.012240587,-0.010955053,0.042299687934731975,0.020860254149703147,0.025385446,-3.057221427,-73.25,-1.85E-04,9.17753536430486E-4,2.6687501152091234E-4,0,0.5813776850700378,1.2195979356765747,6.559999942779541,0.007149742,0,160.1999969482422,-86.9155167,40.3848191,-104.8613161,-12.39532169,-30.8847875,-0.021717695,0.013745546114893214,4.195868228652596E-4,-44.80157078,-42.33582924,4.696633911132812,9.951517086584591,-0.252585082,-0.20323021,Drive
54,0.002061825,1.1139457086914952E-4,0.004903456,9.951990423850642,-0.250180642,-0.201511095,0.9989709396964138,-0.012100339,-0.010892664,0.042331724,0.020746479,0.025100614604296037,-3.05715307,-78.33333333,-1.73E-04,4.6703130067823434E-4,2.3129166926718454E-4,0,0.606052816,1.229598045349121,6.453000068664551,0.002500694,0,160.1999969482422,-86.9155167,40.384819,-104.8084904,-12.42118568,-30.92919527,-0.021705834,0.013294823883661946,3.840034743951796E-4,-44.74837906,-42.36108334,4.6512498998641965,9.951990423850642,-0.250180642,-0.201511095,Drive
55,-0.001856923,-0.003207052,0.003627486,9.948369257658431,-0.25340108,-0.202556502,0.9989744625412501,-0.012123267,-0.010864983,0.042249005,0.020691307,0.025142378406599164,-3.057318415,-80.375,-9.40E-05,7.165708498527798E-4,6.225943238510249E-4,0,0.6850547194480896,1.239598035812378,6.235000133514404,0.004182687,0,160.1999969482422,-86.9155167,40.3848191,-104.8012917,-12.42203975,-30.98775534,-0.021626342,0.013544363359240098,7.753061161985478E-4,-44.74166908,-42.36144924,4.590859889984131,9.948369257658431,-0.25340108,-0.202556502,Drive
56,-0.005450573,-0.004787255,0.00347034,9.940296386052104,-0.254350658,-0.202672659,0.9989766206556153,-0.012092888,-0.010880561,0.042202758,0.020726153,0.025082024284502836,-3.05741084,-87.88888889,-1.93E-05,7.398368488970096E-4,6.582917084971678E-4,0,0.40459856390953064,1.2495980262756348,6.086999893188477,0.005253727,0,160.1999969482422,-86.9155168,40.3848191,-104.8400883,-12.45754169,-30.9643314,-0.02155164,0.013567629460136867,8.110034994970899E-4,-44.78034302,-42.39841534,4.615137910842895,9.940296386052104,-0.254350658,-0.202672659,Drive
57,-0.003776467,-1.69E-04,0.002400296,9.929575142351169,-0.250996641,-0.203276672,0.9989748354097014,-0.01217261,-0.010873647,0.042223741,0.020705142392984873,0.025241185,-3.057370149,-75.55555556,-1.50E-04,3.2469795652873164E-4,2.550139064783031E-4,0,0.3969886600971222,1.109197974205017,5.5879998207092285,0.038910646,0,160.1999969482422,-86.9155169,40.3848197,-104.8433823,-12.38604972,-30.94676334,-0.021682112,0.013152490483000151,4.0772569013162725E-4,-44.78339294,-42.32570324,4.632705903053283,9.929575142351169,-0.250996641,-0.203276672,Drive
58,0.002905966,-0.001943689,0.005005217,9.935653066172183,-0.251757466,-0.200976774,0.9989749667713943,-0.012121992,-0.010887565,0.042231544273570905,0.020737007079483234,0.025141364,-3.057353936,-73.5,-1.62E-04,8.347257440548065E-4,4.922361497414633E-4,0,0.4140048325061798,1.119197964668274,5.421999931335449,0.031646937131881714,0,160.1999969482422,-86.9155169,40.3848199,-104.8326463,-12.42545574,-30.88259134,-0.021693973,0.013662518350208559,6.449479430018771E-4,-44.77302311,-42.36535332,4.699317917823792,9.935653066172183,-0.251757466,-0.200976774,Drive
59,-0.005558292,-0.00337419,0.003202086,9.926745543113121,-0.253984319,-0.201894411,0.9989709379603562,-0.012158358,-0.010831599,0.042330782,0.020619587,0.025211372946217222,-3.057154489,-77.77777778,-1.38E-04,3.8400348061153175E-4,4.685139215723114E-4,0,0.2906888425350189,1.1291979551315308,5.3480000495910645,0.013302762992680073,0,160.1999969482422,-86.9155169,40.3848199,-104.8737605,-12.40739976,-30.84562538,-0.021670251,0.013211796,6.212257114419877E-4,-44.8138929,-42.34754112,4.734087934494019,9.926745543113121,-0.253984319,-0.201894411,Drive
60,-0.00213936,-0.003011217,0.003311447,9.922884487,-0.251371246,-0.204066537,0.9989744355377642,-0.012052422,-0.010954869,0.042246317509019256,0.020877007286525466,0.025008308981518144,-3.057324747,-120.375,5.189235462327895E-5,7.754201611992225E-4,7.05736169356455E-4,0,0.4060788154602051,1.1391979455947876,5.197999954223633,0.014723476022481918,0,160.1999969482422,-86.9155166,40.3848199,-104.8364282,-12.34456969,-30.90650345,-0.021480473,0.013603212791088136,8.584479558353936E-4,-44.77607288,-42.2843449,4.674551935195923,9.922884487,-0.251371246,-0.204066537,Drive
61,4.979105829035195E-4,-0.004376336,0.00378163,9.922225211430522,-0.253186188,-0.201906027,0.9989714472039232,-0.012090003,-0.010907396,0.042318969,0.020777116,0.02508093,-3.057178789,-87,-1.93E-05,5.263368241959116E-4,6.701528180607603E-4,0,0.46043458580970764,1.1491979360580444,5.039000034332275,0.010459464974701405,0,160.1999969482422,-86.9155166,40.38482,-104.8076362,-12.38519571,-30.9409074,-0.021551639,0.013354129492513184,8.228646147119117E-4,-44.74764698,-42.32497147,4.640147919654846,9.922225211430522,-0.253186188,-0.201906027,Drive
62,-0.007780214,-0.00216485,0.003166709,9.913214415,-0.251298647,-0.200558612,0.9989671909693375,-0.012109499,-0.010799648,0.042441121,0.020557029407869264,0.025113301152743184,-3.056931873,-93.375,-1.38E-04,4.003124505968638E-5,3.973472461068225E-4,0,0.31906113028526306,1.1591980457305908,4.9679999351501465,0.00442832,0,160.1999969482422,-86.9155166,40.38482,-104.8619262,-12.38007176,-30.93444138,-0.021670251,0.012867823848952947,5.50059041062605E-4,-44.80205902,-42.31984726,4.644661912918091,9.913214415,-0.251298647,-0.200558612,Drive
63,-0.01249443,-0.004518854,0.002239335,9.885403725707416,-0.257335879,-0.2010697,0.9989643716117711,-0.012360509,-0.010809938,0.042432087,0.020556759921092432,0.025615559149425007,-3.056954884,-108.7777778,-1.38E-04,6.568090418281341E-4,5.159583643476651E-4,0,0.2126029133796692,1.1691980361938477,5.853000164031982,0.003261497,0,160.1999969482422,-86.9155167,40.38482,-104.9603803,-12.42923771,-30.97689741,-0.021670251,0.013484601636679427,6.686701677802914E-4,-44.900513,-42.36925728,4.602693920135498,9.885403725707416,-0.257335879,-0.2010697,Drive
64,-0.001757117,-0.001482003,0.006224093,9.883916956707111,-0.257309745,-0.196632523,0.9989624069287226,-0.012439199,-0.010776696,0.042463981080800295,0.020482849096879363,0.025770657857020315,-3.056891588,-128.875,-2.23E-04,5.873531140073632E-4,2.3494125567734815E-4,0,0.37483328580856323,1.1791980266571045,6.736999988555908,0.006125506,0,160.1999969482422,-86.9155167,40.3848201,-104.9725803,-12.44668374,-30.91626341,-0.02175556,0.013415145750444096,3.876530429876696E-4,-44.91283497,-42.38658112,4.662839908599853,9.883916956707111,-0.257309745,-0.196632523,Drive
65,0.002374538,-0.00364989,0.003511087,9.889283393193217,-0.258416133,-0.198351639,0.9989609058620861,-0.012432193,-0.010743722,0.042510087,0.020416330112126266,0.025754821,-3.056798301,-131,-2.56E-04,7.161146071649076E-4,5.75263925728578E-4,0,0.41231057047843933,1.1891980171203613,8.178000450134277,0.004326688,0,160.1999969482422,-86.9155166,40.3848201,-104.8810802,-12.43667972,-30.96176941,-0.021788862,0.013543907254572633,7.279757189889918E-4,-44.82133507,-42.37694324,4.617577929496765,9.889283393193217,-0.258416133,-0.198351639,Drive
66,0.001787195,-0.003109365,0.003465542,9.892814543640728,-0.257934084,-0.196516367,0.9989575205497372,-0.012433802,-0.01064573,0.042613730883424725,0.020217648,0.025751829,-3.056588289,-132.25,-1.38E-04,5.500590450184655E-4,5.278194761717493E-4,0,0.42638009786605835,1.1991980075836182,8.541999816894531,0.002723485,0,160.1999969482422,-86.9155166,40.3848201,-104.8941341,-12.46229976,-30.93370941,-0.021670251,0.013377852,6.805312750833923E-4,-44.83365704,-42.4025631,4.646247925758362,9.892814543640728,-0.257934084,-0.196516367,Drive
67,0.007577581,-0.001573231,0.002762745,9.903849370271256,-0.255114386,-0.197004224,0.9989576571196028,-0.012363079,-0.010626816,0.042635830824525614,0.02018525,0.025609346793837917,-3.05654229,-130.5555556,4.4479124130482235E-6,3.958645952612306E-4,6.227083707644233E-4,0,0.264007568,1.209197998046875,9.840000153,0.005914251,0,160.1999969482422,-86.9155166,40.3848202,-104.8831538,-12.41435373,-30.9803134,-0.021527917,0.013223657,7.75420171936558E-4,-44.82292095,-42.35449547,4.599887886047363,9.903849370271256,-0.255114386,-0.197004224,Drive
68,0.019692467254342386,-6.58E-05,0.004489558,9.944001509593082,-0.249066377,-0.195958371,0.998959563,-0.012111285,-0.010622382,0.042664464526963465,0.020196962034673367,0.025106399491863343,-3.056480283,-132.3333333,-1.73E-04,5.619201562774268E-4,4.6851391705132804E-4,0,0.6850547194480896,1.2191979885101318,10.635000228881836,0.004085575,0,160.1999969482422,-86.9155166,40.3848202,-104.86339,-12.44765975,-30.89881733,-0.021705834,0.013389712733044786,6.212257210490773E-4,-44.8030349,-42.38731323,4.681017928123474,9.944001509593082,-0.249066377,-0.195958371,Drive
69,0.005556579,-0.002617482,0.00298774,9.952858887829827,-0.251539673,-0.196493137,0.9989570425552072,-0.012042964,-0.010541814,0.042762844,0.020039241182283292,0.024964994,-3.056280062,-124.25,-7.86E-05,5.02614601112866E-4,3.024583515141485E-4,0,0.8280096650123596,1.2291979789733887,10.67300033569336,0.001983374,0,160.1999969482422,-86.9155166,40.3848202,-104.8081241,-12.46608173,-30.93236732,-0.021610945,0.013330407250781082,4.551701572072665E-4,-44.74825691,-42.40536938,4.647589926719665,9.952858887829827,-0.251539673,-0.196493137,Drive
70,-0.001630728,-0.00207326,0.002297936,9.946589331,-0.25145836,-0.197027457,0.9989552434208324,-0.012111899,-0.010551551,0.042782968,0.02005235,0.025103980277493162,-3.056241267,-116.4444444,1.6309027627870006E-5,4.7889237407396E-4,3.499027988104855E-4,0,0.6242595911026001,1.2391979694366455,10.654999732971191,7.452527061104774E-4,0,160.1999969482422,-86.9155166,40.3848202,-104.8614381,-12.46266575,-30.84477144,-0.021516056,0.013306685027132914,5.026146016779889E-4,-44.80144901,-42.40256344,4.735185923576355,9.946589331,-0.25145836,-0.197027457,Drive
71,-0.001363736,-0.00183771,0.003847994,9.944974705,-0.251952028,-0.196284055,0.9989553898283579,-0.012119928,-0.010583416,0.042769329,0.020115702765659223,0.025122465782807867,-3.056269507,-112.875,-1.28E-04,5.307847416950661E-4,2.9504515379848124E-4,0,0.8043009638786316,1.2491979598999023,10.685999870300293,2.045175788225606E-4,0,160.1999969482422,-86.9155166,40.3848202,-104.7966561,-12.43606975,-30.93090332,-0.021682112,0.013425296127289823,5.14475715197442E-4,-44.7364233,-42.37535713,4.649175915718079,9.944974705,-0.251952028,-0.196284055,Drive
72,-0.001427308,-7.71E-04,7.554295572262366E-4,9.942959368807598,-0.251144739,-0.196260824,0.9989497019249258,-0.012139882,-0.010439909,0.042931477530199345,0.019823092569425268,0.025153308293049775,-3.055941612,-113.7777778,9.785417367894094E-5,-2.05E-04,5.7822895277002194E-5,0,0.592030406,1.1087779998779297,10.510000228881836,0.019983422,0,160.1999969482422,-86.9155165,40.3848205,-104.8909622,-12.3991037,-30.9849494,-0.021587223,0.013081323906996296,6.686701683454143E-4,-44.83097324,-42.33887917,4.595983915328979,9.942959368807598,-0.251144739,-0.196260824,Drive
73,-0.001279088,-7.83E-04,-6.53E-04,9.939916018,-0.250680116,-0.197701163,0.9989513938243573,-0.01213766,-0.010432589,0.04289434,0.019809578,0.025147500752399746,-3.056015739,-111.625,2.1144713257224514E-4,4.816295527584421E-4,3.054235897322472E-4,0,0.5385164618492126,1.1187779903411865,10.562000274658203,0.024266757,0,160.1999969482422,-86.9155165,40.3848208,-104.8903526,-12.42057571,-31.09645731,-0.02147363,0.013767557630601984,9.162708721795263E-4,-44.83011925,-42.35998516,4.482645884,9.939916018,-0.250680116,-0.197701163,Drive
74,-0.002058687,3.515073975313057E-4,0.001785835,9.9358708,-0.249596954,-0.196376979,0.9989551028001655,-0.012133163,-0.010496049,0.042793779,0.019939345081599013,0.025141946,-3.056218596,-91.55555556,-8.90E-06,6.820139524897615E-5,-3.10E-04,0,0.3189043700695038,1.1287779808044434,10.61299991607666,0.014318034052848816,0,160.1999969482422,-86.9155165,40.3848208,-104.8572903,-12.38104772,-30.99141535,-0.021693973,0.013354129478950235,3.0097569388708157E-4,-44.79742325,-42.32033524,4.589395885467529,9.9358708,-0.249596954,-0.196376979,Drive
75,-5.30E-04,-0.001575021,4.6358452838601415E-4,9.935115786432062,-0.253252979,-0.198235483,0.9989614116335378,-0.012224412,-0.010526975,0.042612375,0.019997995690379328,0.025323277465926792,-3.056584212,-108.5,2.7577085330069643E-4,5.189236129172942E-4,3.543506790115272E-4,0,0.7360027432441711,1.1387779712677002,10.61400032043457,0.011204582639038563,0,160.1999969482422,-86.9155165,40.3848209,-104.8747364,-12.37445971,-31.07278934,-0.021409306,0.013804851669492652,9.651979515148164E-4,-44.81486916,-42.31447933,4.506313910484314,9.935115786432062,-0.253252979,-0.198235483,Drive
76,-1.84E-04,4.93880759165125E-4,-1.51E-04,9.935458433280871,-0.249402393,-0.202579734,0.9989690271396081,-0.01212968,-0.010708324,0.042415467,0.020373447228548596,0.025145395,-3.056981323,-84.125,6.227083707644234E-5,2.579791674806366E-4,4.596178345291794E-5,0,0.5173973441123962,1.148777961730957,10.593999862670898,0.005695587,0,160.1999969482422,-86.9155165,40.3848209,-104.8690026,-12.39641974,-30.97250544,-0.021622806,0.013543907281698532,6.568090548259613E-4,-44.80876911,-42.33680542,4.606963896751404,9.935458433280871,-0.249402393,-0.202579734,Drive
77,-0.013277554,-0.002722475,0.001455893,9.913585039285513,-0.253187669,-0.200767024,0.9989685624548532,-0.012167866,-0.010711608,0.042414755,0.020376813173004726,0.025221961595624395,-3.056983524,-80,3.8548613428273825E-5,5.634027438292515E-5,1.0526734539895382E-4,0,0.7481309771537781,1.1587779521942139,10.482000350952148,0.010476956143975258,0,160.1999969482422,-86.9155167,40.384821,-104.8890102,-12.44558577,-30.97018738,-0.021646528,0.013342268358084183,7.161146162068743E-4,-44.82902103,-42.3856052,4.611355910301208,9.913585039285513,-0.253187669,-0.200767024,Drive
78,-0.015319019,-0.002162984,-0.001889371,9.880687704364073,-0.256514071,-0.202951436,0.9989645591059935,-0.012387949,-0.010691385,0.042450367319352415,0.020316977433643295,0.025660760429443666,-3.056915723,-99.5,-8.01E-05,5.634027664341683E-5,9.340622679339451E-5,0,0.8487638235092163,1.1687779426574707,10.366000175476074,0.010130347684025764,0,160.1999969482422,-86.9155168,40.384821,-104.848506,-12.45497977,-30.88356739,-0.021765139,0.013342268349042216,7.042535015571754E-4,-44.7881509,-42.39463326,4.6972438955307005,9.880687704364073,-0.256514071,-0.202951436,Drive
79,-0.002227172,-0.001073804,0.001111892,9.879711928876858,-0.258329016,-0.201302013,0.9989647934737714,-0.012577305,-0.010776388,0.042367602978805895,0.020473094295384815,0.026044652715904042,-3.057087077,-123.8888889,1.690208434932006E-4,6.820138959774693E-5,-8.45E-05,0,0.47707441449165344,1.1787779331207275,10.284000396728516,0.009322272,0,160.1999969482422,-86.9155169,40.384821,-104.8927923,-12.3919057,-31.00263943,-0.021516056,0.013354129,5.263368304122638E-4,-44.832803,-42.3319252,4.577439894676209,9.879711928876858,-0.258329016,-0.201302013,Drive
80,0.00309309,3.6218849200646855E-4,0.001067791,9.887006592982024,-0.256911906,-0.20034953,0.9989633774294436,-0.012571679,-0.010724456,0.042415901801539854,0.020368507,0.026030005489304228,-3.056988918,-127.875,5.040972525235808E-5,1.0378472280950801E-4,1.0378450241156862E-5,0,0.47707441449165344,1.188778042793274,10.302000045776367,0.007524487,0,160.1999969482422,-86.9155169,40.3848211,-104.9285383,-12.3720197,-31.00032145,-0.021634667,0.013389712796338554,6.212257221793232E-4,-44.86867104,-42.31216122,4.579757895469665,9.887006592982024,-0.256911906,-0.20034953,Drive
81,0.002401657,-9.08E-04,-5.26E-04,9.891258100861485,-0.257977643,-0.201185856,0.9989630747767329,-0.012531188,-0.010688871,0.042443995481555905,0.020300053,0.025946655048473367,-3.056931021,-124.5555556,2.668750160418957E-5,1.0378472167926216E-4,1.882951315582811E-4,0,0.48548945784568787,1.1987780332565308,10.260000228881836,0.006559147,0,160.1999969482422,-86.9155167,40.3848211,-104.8571679,-12.40325173,-30.99336746,-0.021658389,0.013389713,7.991423989754641E-4,-44.7974229,-42.34302731,4.585857892036438,9.891258100861485,-0.257977643,-0.201185856,Drive
82,0.010942972623384915,6.999058219102713E-4,6.237554435546581E-5,9.908170440821971,-0.254217079,-0.199908135,0.9989624040631148,-0.01244776,-0.010639836,0.042496593,0.020207709704454128,0.025776854,-3.056822935,-95,4.698825068771839E-5,3.524118018014213E-5,3.524116115071453E-5,0,0.28319603204727173,1.2087780237197876,10.74899959564209,0.028152434155344963,0,160.1999969482422,-86.9155163,40.3848209,-104.884008,-12.38080368,-30.97006546,-0.021638089,0.013321169275933733,6.46088436322036E-4,-44.82377522,-42.32070099,4.609159917831421,9.908170440821971,-0.254217079,-0.199908135,Drive
83,0.013851193548406212,0.001261574,-2.09E-04,9.939230733704798,-0.250227103,-0.199954599,0.9989620447158813,-0.012226965,-0.010589816,0.042581441,0.020124184618731146,0.025333113642861543,-3.056647794,-111.75,1.0971528437277936E-4,-1.10E-04,1.4085067861071488E-4,0,0.39204591512680054,1.2187780141830444,10.670000076293945,0.050386097,0,160.1999969482422,-86.9155156,40.3848205,-104.8243507,-12.35127975,-30.86111942,-0.021575362,0.013176212819672904,7.516979494186354E-4,-44.76399509,-42.2909333,4.71822793,9.939230733704798,-0.250227103,-0.199954599,Drive
84,0.007201334,0.001411522,1.5987253304824089E-4,9.948860159198057,-0.248711262,-0.199513205,0.998961019,-0.012138302,-0.010566695,0.042636662106780174,0.020084063206048844,0.025155090772121854,-3.056535047,-128.6666667,1.5715973392960806E-4,8.895820305113075E-6,-1.33E-05,0,0.41109609603881836,1.2287780046463013,10.673999786376953,0.068230264,0,160.1999969482422,-86.9155146,40.3848204,-104.8387463,-12.3753137,-30.93017147,-0.021527917,0.013294823919829814,5.975035002265234E-4,-44.7787571,-42.31533314,4.649175901412963,9.948860159198057,-0.248711262,-0.199513205,Drive
85,8.217709735759254E-4,1.3964471307773035E-4,-9.18E-04,9.949118632714725,-0.248754821,-0.200442456,0.9989611732149587,-0.012068834,-0.01054985,0.042656957090479654,0.020055760909776087,0.025015249938785452,-3.056492741,-138.25,6.227083933693402E-5,-2.67E-05,1.0378447415542255E-5,0,0.36878177523612976,1.238777995109558,10.71399974822998,0.049510154873132706,0,160.1999969482422,-86.9155142,40.3848203,-104.9007224,-12.38251174,-30.98946339,-0.021622806,0.013259241,6.212257216142002E-4,-44.84097702,-42.32277519,4.590859866142273,9.949118632714725,-0.248754821,-0.200442456,Drive
86,-0.001407484,1.7194970718865254E-4,-7.40E-04,9.946262121200562,-0.249624319,-0.201894412,0.9989626749047955,-0.012105856,-0.010625492,0.042592455,0.020205442,0.025094358431338108,-3.05662445,-134.3333333,2.9652779560210635E-6,1.7495139149352186E-4,-4.89E-05,0,0.5420331954956055,1.248777985572815,10.625,0.057698708,0,160.1999969482422,-86.9155134,40.3848203,-104.8217881,-12.42386971,-30.89991543,-0.021682112,0.013460879458241093,5.619201613635331E-4,-44.76228687,-42.36474335,4.680773897,9.946262121200562,-0.249624319,-0.201894412,Drive
87,-0.007116012,-0.004129619,-0.001268604,9.934468204535326,-0.253168765,-0.203718067,0.9989643930231483,-0.012075262,-0.010707086,0.042540299,0.020372426173496015,0.025039088,-3.056730361,-115.375,1.0971528437277936E-4,8.006249464035613E-5,3.0690623454080477E-4,0,0.6860029101371765,1.1082680225372314,10.168000221252441,0.060145147144794464,0,160.1999969482422,-86.9155128,40.3848207,-104.8524105,-12.39227173,-30.91467739,-0.021575362,0.013365990617900218,9.177535076092169E-4,-44.79229904,-42.33204712,4.6643039512634275,9.934468204535326,-0.253168765,-0.203718067,Drive
88,-0.007558786,-0.002082118,-1.65E-04,9.918676709665835,-0.25381053,-0.201906027,0.9989609000752273,-0.012236766,-0.01069579,0.042579009152442504,0.020335235298403257,0.025361647738993746,-3.056655511,-123.6666667,2.6390974034636635E-4,-2.64E-04,1.1712844366008795E-4,0,0.25495097041130066,1.1182680130004883,10.112000465393066,0.041725837,0,160.1999969482422,-86.9155125,40.3848208,-104.8555817,-12.40532573,-30.83501144,-0.021421167,0.013022018325270958,7.279757212494835E-4,-44.79571487,-42.34473518,4.745799918174743,9.918676709665835,-0.25381053,-0.201906027,Drive
89,0.008402287,0.004666201,7.929625441727129E-4,9.936013138409956,-0.246518809,-0.207806773,0.998970682,-0.012192586,-0.011036606,0.042271515,0.021028028656412096,0.025295660966663684,-3.057278987,-117.5,2.639097708630041E-4,6.731180451557185E-4,5.797118002783905E-4,0,0.5341348052024841,1.1282680034637451,10.086000442504883,0.019873328506946564,0,160.1999969482422,-86.9155125,40.3848208,-104.7268719,-12.43009179,-30.88844742,-0.021421168,0.013959046091558864,0.001190559,-44.66651711,-42.37096523,4.691265931129456,9.936013138409956,-0.246518809,-0.207806773,Drive
90,0.002585124,6.26551150118263E-4,-0.004753172,9.940052486160427,-0.243217062,-0.213382282,0.9989724535386539,-0.011801139,-0.011002316,0.042351700220871896,0.020990281284434125,0.024512383,-3.057110164,-104,2.1646531452470033E-4,2.223958139244503E-4,4.13656234176088E-4,0,0.612943709,1.138267993927002,10.083999633789062,0.010953049175441265,0,160.1999969482422,-86.9155125,40.3848208,-104.7612761,-12.43899778,-30.85514135,-0.021468612,0.013508323887453495,0.001024504,-44.70092072,-42.37840736,4.726035928726196,9.940052486160427,-0.243217062,-0.213382282,Drive
91,-0.0013553,-0.007159252,4.899478875673735E-4,9.938545319640522,-0.246492675,-0.211291467,0.9989759199894391,-0.011582351,-0.01113663,0.042293368838727474,0.021278561791405082,0.024085214,-3.057226048,-58,-5.87E-05,-2.82E-04,-4.11E-04,0,0.6435060501098633,1.1482679843902588,10.083999633789062,0.009272696,0,160.1999969482422,-86.9155124,40.3848207,-104.7829918,-12.34469168,-30.74765928,-0.021743813,0.013003998440511238,1.9970010628010362E-4,-44.72300285,-42.2845892,4.832053933143616,9.938545319640522,-0.246492675,-0.211291467,Drive
92,-0.01324287,5.913582965008263E-4,9.511066871939354E-4,9.918113356655084,-0.243170601,-0.206110889,0.9989654543330369,-0.011813309,-0.010934172,0.042529657844779564,0.020848749422477286,0.024534637144613035,-3.056752478,-50.33333333,2.2832642521853876E-4,-8.60E-05,1.2898954418171378E-4,0,0.6519202589988708,1.1582679748535156,10.109999656677246,0.008749857,0,160.1999969482422,-86.9155123,40.3848207,-104.8488724,-12.39019773,-30.96274542,-0.021456751,0.013199935007153206,7.398368556784846E-4,-44.78839516,-42.32972916,4.616723928451538,9.918113356655084,-0.243170601,-0.206110889,Drive
93,-0.014948178,-0.001035729,0.001637574,9.884544205897063,-0.253755357,-0.201000006,0.9989544807128536,-0.012311602,-0.010767078,0.042688489213441184,0.020468556367367215,0.025519432427669034,-3.056439421,-53.125,-8.01E-05,-5.13E-04,-6.42E-04,0,1.0199999809265137,1.1682679653167725,10.17300033569336,0.015828298404812813,0,160.1999969482422,-86.915512,40.3848207,-104.8411861,-12.43533781,-30.92077734,-0.02176514,0.012772934999570105,-3.11E-05,-44.78095291,-42.37511314,4.6595459032058715,9.884544205897063,-0.253755357,-0.201000006,Drive
94,-0.003904056,-0.001618433,8.830235710421812E-4,9.879392596124445,-0.256821887,-0.201278781,0.9989562572784794,-0.01245783,-0.010765025,0.042605699410716305,0.020454255104498956,0.025809782,-3.056607862,-87.33333333,2.876319809482225E-4,8.984791912879903E-4,8.050729260662371E-4,0,0.9080198407173157,1.1782679557800293,10.371999740600586,0.014926326461136341,0,160.1999969482422,-86.9155119,40.3848206,-104.891938,-12.41581776,-30.88881336,-0.021397445,0.014184407247863347,0.00141592,-44.83170498,-42.35669117,4.691387934684753,9.879392596124445,-0.256821887,-0.201278781,Drive
95,0.00464657,0.004263216,3.6985072696093217E-4,9.889308791894178,-0.247148094,-0.201825386,0.9989572427805188,-0.012336776,-0.010757712,0.042619172013500364,0.020449522285930163,0.025567532761149037,-3.05657846,-42.11111111,1.8088198131293925E-4,-1.45E-04,3.4248955192912406E-4,0,0.9625486731529236,1.1882679462432861,10.642999649047852,0.011487468145787716,0,160.1999969482422,-86.9155119,40.3848205,-104.8966964,-12.37543569,-30.93993141,-0.021504195,0.013140629,9.53336891682041E-4,-44.83658512,-42.31521126,4.6401479005813595,9.889308791894178,-0.247148094,-0.201825386,Drive
96,0.001995624,-0.001447015,0.002619371,9.892797081215868,-0.253287828,-0.198421333,0.9989554430674581,-0.012236088,-0.010673409,0.042710979,0.020287216378791818,0.025360994276057168,-3.056390693,-50.375,-8.90E-06,-3.23E-04,-6.66E-04,0,0.191049725,1.198267936706543,10.765000343322754,0.015141614712774754,0,160.1999969482422,-86.9155116,40.3848205,-104.9833167,-12.40410579,-30.92346138,-0.021693973,0.012962712752587587,-5.49E-05,-44.92308319,-42.34388138,4.656129932403564,9.892797081215868,-0.253287828,-0.198421333,Drive
97,0.008876606,-5.16E-04,-0.002792316,9.906012748051616,-0.254731071,-0.201906027,0.9989496660464018,-0.012372227,-0.010608952,0.042824052238059275,0.020143937048258134,0.025629896,-3.056165126,-25,3.854862699122394E-5,1.5122915428240322E-4,-1.20E-04,0,0.1345362365245819,1.2082680463790894,11.402999877929688,0.012958158738911152,0,160.1999969482422,-86.9155115,40.3848206,-104.8247158,-12.50231576,-30.76852142,-0.021646529,0.013437157252676857,4.907534875934129E-4,-44.76509296,-42.44209118,4.812045955657959,9.906012748051616,-0.254731071,-0.201906027,Drive
98,0.018958175066605354,7.086312307894809E-4,0.005709937,9.945831234015307,-0.249152657,-0.195982048,0.9989524524188736,-0.012132854,-0.010681773,0.042808037,0.020310262,0.025157407,-3.056194722,-23.125,5.040975576899584E-5,3.291458146899794E-4,3.306284429306544E-4,0,0.1345362365245819,1.2182680368423462,11.263999938964844,0.010973571799695492,0,160.1999969482422,-86.9155114,40.3848206,-104.8040981,-12.43289768,-30.81805338,-0.021634668,0.013615073907433205,9.414757804230796E-4,-44.74386509,-42.37255135,4.7610499286651615,9.945831234015307,-0.249152657,-0.195982048,Drive
99,0.00479176,5.603355256099146E-4,-0.001927656,9.952640968619042,-0.245720235,-0.201232319,0.9989482939822002,-0.011932819,-0.010552776,0.042992067,0.020064862,0.024750258574642026,-3.055819442,-47.66666667,8.599307541780681E-5,-3.59E-04,-2.03E-04,0,0.1345362365245819,1.228268027305603,11.253999710083008,0.009430117,0,160.1999969482422,-86.9155113,40.3848206,-104.8093435,-12.37128772,-30.85623943,-0.021599084,0.012927129385468451,4.0772574268805895E-4,-44.74935493,-42.31155117,4.725547947883606,9.952640968619042,-0.245720235,-0.201232319,Drive
100,3.140431184035081E-4,7.683063785617168E-4,-0.001501431,9.951473579,-0.250941467,-0.197236537,0.9989466277452616,-0.012205575,-0.010366212,0.043000032408879355,0.019668559024396997,0.025279557,-3.055803689,-32.125,1.9970014377926977E-4,-2.58E-04,-6.46E-04,0,0.1345362365245819,1.2382680177688599,11.119000434875488,0.001369099,0,160.1999969482422,-86.9155114,40.3848206,-104.8452124,-12.41484173,-30.9869014,-0.021485378,0.013027492601675196,-3.52E-05,-44.78497902,-42.35534924,4.593421926498413,9.951473579,-0.250941467,-0.197236537,Drive
101,-0.002526774,7.212643773810378E-4,-0.00185141,9.945430542658833,-0.253067129,-0.197979938,0.9989503946119141,-0.01231691,-0.010392686,0.042875947991331806,0.019715083111981745,0.025501890650507317,-3.056054731,-71.88888889,8.599308445977354E-5,6.820137151381344E-5,-3.71E-05,0,0.1345362365245819,1.2482680082321167,10.989999771118164,7.651376654393971E-4,0,160.1999969482422,-86.9155114,40.3848206,-104.8627798,-12.42313774,-31.01496132,-0.021599084,0.013354129,5.737812726224944E-4,-44.80327911,-42.36291325,4.5653619,9.945430542658833,-0.253067129,-0.197979938,Drive
102,-0.001490306,-6.60E-04,4.6918418222260705E-4,9.943081253940619,-0.254298387,-0.195517422,0.9989500508725064,-0.012313746,-0.010388823,0.042886094,0.019707344562827963,0.025495456368888465,-3.056034266,-49.125,1.215764041085845E-4,6.256736724556071E-4,2.9504511763061425E-4,0,0.17691805958747864,1.1077879667282104,10.345000267028809,0.020119533,0,160.1999969482422,-86.9155114,40.3848209,-104.9002338,-12.45449178,-30.95957329,-0.021563501,0.013911601761808095,9.058923957851327E-4,-44.84073307,-42.39499924,4.620749912261963,9.943081253940619,-0.254298387,-0.195517422,Drive
103,-0.002330076,-0.002263339,4.4313593975548604E-5,9.939512345397358,-0.253101976,-0.200744463,0.9989578324614219,-0.012167612,-0.010624506,0.042688389932646335,0.020195832403684125,0.025219608,-3.056433453,-40.44444444,1.2157639845735529E-4,3.172847017356493E-4,1.6457289321691665E-4,0,0.12806248664855957,1.1177879571914673,10.210000038146973,0.019237637519836426,0,160.1999969482422,-86.9155114,40.3848211,-104.8069042,-12.3839757,-30.94981344,-0.021563501,0.013603212813693054,7.754201691109434E-4,-44.74679298,-42.32375111,4.629899926185608,9.939512345397358,-0.253101976,-0.200744463,Drive
104,-7.55E-04,3.6330578975307134E-4,0.001445228,9.938839132969196,-0.250170758,-0.196648606,0.9989541745880275,-0.012160489,-0.010504339,0.042805464,0.019953313979853705,0.025197476962382354,-3.056195919,-70.55555556,7.413195229126411E-5,9.192360081321117E-5,1.2898954870269716E-4,0,0.10000000149011612,1.1277879476547241,10.184000015258789,0.010394502431154251,0,160.1999969482422,-86.9155114,40.3848211,-104.8570464,-12.34505774,-30.97567741,-0.021610945,0.013377851716161352,7.398368268572155E-4,-44.79669109,-42.28446716,4.604279918670654,9.938839132969196,-0.250170758,-0.196648606,Drive
105,-4.58E-04,-8.35E-04,0.00168462,9.937119548760572,-0.251725522,-0.196702217,0.9989531815630718,-0.012186773,-0.010499699,0.042822556,0.019941360391314746,0.025249958,-3.056162043,-94.875,1.9274306940186083E-4,6.820138055578019E-5,1.764340050410009E-4,0,0.10000000149011612,1.137787938117981,10.128000259399414,0.004267098,0,160.1999969482422,-86.9155114,40.3848211,-104.8031222,-12.43179978,-30.95786539,-0.021492334,0.013354129465387284,7.872812769791672E-4,-44.74288918,-42.37181927,4.621725897789002,9.937119548760572,-0.251725522,-0.196702217,Drive
106,-0.001922496,-5.94E-04,5.902610357525279E-5,9.934328819941548,-0.251324783,-0.197166844,0.9989514877495257,-0.01217065,-0.010446061,0.04287977,0.019834073224258654,0.025214296,-3.056045847,-72.33333333,7.41319489005266E-5,-6.23E-05,9.340623527023833E-5,0,0.10000000149011612,1.1477879285812378,10.07699966430664,0.001343207,0,160.1999969482422,-86.9155114,40.3848211,-104.9520844,-12.39605373,-30.94090733,-0.021610945,0.013223657230801374,7.04253504947913E-4,-44.89148518,-42.33607315,4.638805937767029,9.934328819941548,-0.251324783,-0.197166844,Drive
107,-0.013986236,-0.003068478,5.079823211558814E-4,9.910194415490604,-0.251792313,-0.198955654,0.9989574725188098,-0.01208775,-0.010570237,0.042732955905997634,0.020092997410633032,0.025056305694059262,-3.056341421,-96.5,1.2157639619686361E-4,6.375347435908411E-4,7.576284861164982E-4,0,0.10000000149011612,1.1577880382537842,10.03600025177002,2.6728076045401394E-4,0,160.1999969482422,-86.9155114,40.3848211,-104.952938,-12.34883971,-31.06851931,-0.021563501,0.013923462841985295,0.001368476,-44.8928273,-42.28898106,4.511803917884826,9.910194415490604,-0.251792313,-0.198955654,Drive
108,-0.013024798,-5.17E-04,-7.54E-05,9.883220005961297,-0.253215227,-0.198746571,0.9989547156370603,-0.012317755,-0.010577405,0.042728714,0.020087977351907354,0.025516393,-3.056354248,-120.7777778,4.6988268597767906E-5,-5.29E-04,-7.28E-04,0,0.10000000149011612,1.167788028717041,10.031999588012695,2.6765057555167004E-5,0,160.1999969482422,-86.9155114,40.3848211,-104.9092623,-12.35054776,-30.8791753,-0.021638089,0.012757310258726088,-1.17E-04,-44.84927315,-42.29020103,4.6998059272766115,9.883220005961297,-0.253215227,-0.198746571,Drive
109,-0.0023299,-1.26E-04,-6.00E-04,9.880316095444762,-0.259313441,-0.198514258,0.9989499524959082,-0.012667441,-0.010561292,0.042742676,0.020025781,0.026214089,-3.056332139,-137,1.2157640523883034E-4,2.0756938910672388E-5,-1.48E-06,0,0.12041594833135605,1.1777880191802979,10.029000282287598,6.174659938551486E-5,0,160.1999969482422,-86.9155114,40.3848211,-104.9340281,-12.39153968,-30.95591339,-0.021563501,0.013306685036174881,6.093645979225347E-4,-44.87403915,-42.33046131,4.624653921,9.880316095444762,-0.259313441,-0.198514258,Drive
110,0.002812034,-9.65E-04,8.544904514423851E-5,9.887959174739505,-0.259900032,-0.197050688,0.9989486799656766,-0.012652422,-0.01051932,0.042787623,0.019941950036050045,0.026181417,-3.056240765,-134.8888889,1.5715973732034557E-4,1.1564582672187136E-4,-1.08E-04,0,0.12806248664855957,1.1877880096435547,10.026000022888184,0.012547426857054234,0,160.1999969482422,-86.9155111,40.384821,-104.9207305,-12.42777369,-30.96786945,-0.021527917,0.013401573903641655,5.026145977221285E-4,-44.86074123,-42.36803745,4.6117219066619874,9.887959174739505,-0.259900032,-0.197050688,Drive
111,0.001880664,0.001054951,-1.09E-04,9.891536805236225,-0.258070567,-0.1961679,0.9989465405640093,-0.012657597,-0.010461315,0.042850248,0.019823921970950748,0.026188054,-3.05611394,-120.875,2.9652790862669064E-6,1.5122916897559918E-4,-1.44E-04,0,0.086023256,1.1977880001068115,10.048999786376953,0.016197333112359047,0,160.1999969482422,-86.9155109,40.384821,-104.9128,-12.41618368,-30.93822332,-0.021682112,0.013437157,4.670312679011049E-4,-44.85293316,-42.3563253,4.642221927642822,9.891536805236225,-0.258070567,-0.1961679,Drive
112,0.006683933,0.001535888,-8.01E-05,9.901201044471518,-0.256778327,-0.196353748,0.9989473466734284,-0.012611926,-0.010465276,0.042844025400078416,0.019835885,0.026097008632948098,-3.056125706,-133.2222222,8.599306185485669E-5,-6.23E-05,-1.48E-06,0,0.1063014566898346,1.2077879905700684,10.697999954223633,0.030716827139258385,0,160.1999969482422,-86.9155105,40.3848208,-104.85119,-12.40703376,-30.96628336,-0.021599084,0.013223657248885308,6.093646092249931E-4,-44.79156696,-42.34741913,4.612941899299622,9.901201044471518,-0.256778327,-0.196353748,Drive
113,0.020993158655259216,0.002367912,4.789866868732045E-4,9.943187640263485,-0.252623974,-0.195613252,0.9989483315967819,-0.012408057,-0.010426178,0.042890046,0.019773874,0.025687198217922043,-3.056028952,-115,2.9652779560210635E-6,2.2239583313862966E-4,-6.08E-05,0,0.086023256,1.2177879810333252,10.847000122070312,0.029178043827414513,0,160.1999969482422,-86.9155103,40.3848206,-104.863756,-12.40630175,-30.99727127,-0.021682112,0.013508323905537429,5.500590517999405E-4,-44.80364513,-42.34632118,4.582807908058166,9.943187640263485,-0.252623974,-0.195613252,Drive
114,0.007302377,7.750770999389945E-4,4.733763273479869E-4,9.955408420377564,-0.252091415,-0.196818376,0.9989504628968471,-0.012258036,-0.0104358,0.04288124,0.019806092912421643,0.025388064767116483,-3.056044183,-113.25,9.785417593943262E-5,2.342569427022222E-4,-7.26E-05,0,0.086023256,1.227787971496582,10.878999710083008,0.016010306775569916,0,160.1999969482422,-86.9155103,40.3848206,-104.8448459,-12.42813967,-30.95127739,-0.021587223,0.013520185049008397,5.3819793488975E-4,-44.78449093,-42.36937912,4.630021891593933,9.955408420377564,-0.252091415,-0.196818376,Drive
115,-0.001247091,5.397566603225412E-4,6.725756288732139E-4,9.950550246007234,-0.249872826,-0.195447728,0.9989502539912474,-0.012165866,-0.010388388,0.042923871,0.019718096,0.025200674,-3.055956003,-94.55555556,1.4529862097527796E-4,5.634027890390852E-5,-1.48E-06,0,0.086023256,1.2377879619598389,10.77400016784668,0.006593623,0,160.1999969482422,-86.9155103,40.3848206,-104.8531423,-12.41423172,-30.99556335,-0.021539778,0.013342268321916316,6.093646103552389E-4,-44.79290897,-42.35388538,4.5840279006958005,9.950550246007234,-0.249872826,-0.195447728,Drive
116,-0.001868405,3.677548714054441E-4,3.279315904506202E-4,9.945834289476709,-0.250979216,-0.194541709,0.9989486874885929,-0.012190221,-0.010329975,0.042967490200857515,0.019598161910199426,0.025245197623678783,-3.055867623,-123.625,-8.90E-06,6.820138507676356E-5,-7.26E-05,0,0.086023256,1.2477879524230957,10.774999618530273,0.009358834,0,160.1999969482422,-86.9155101,40.3848206,-104.8724184,-12.38263372,-31.04692539,-0.021693973,0.013354129,5.381979388456104E-4,-44.81218521,-42.32240913,4.532909908294678,9.945834289476709,-0.250979216,-0.194541709,Drive
117,-0.007128447,-0.001910439,-2.51E-04,9.935798209847755,-0.252733179,-0.196864837,0.9989525403791261,-0.012169977,-0.01041782,0.042862081,0.01977814,0.025210171,-3.056080538,-129.7777778,2.520486262617904E-4,4.3589585162337544E-4,1.289895605702785E-4,0,0.086023256,1.1072980165481567,10.140000343322754,0.011352700181305408,0,160.1999969482422,-86.9155101,40.3848208,-104.9209744,-12.42289372,-30.97958147,-0.021433028,0.013721823918370946,7.398368330735677E-4,-44.86098507,-42.36291336,4.6006199169158934,9.935798209847755,-0.252733179,-0.196864837,Drive
118,-0.004698753,9.356078047018785E-4,-2.26E-04,9.921165364459881,-0.25045361,-0.199652592,0.9989570459494224,-0.012224731,-0.010567015,0.042704912,0.020075667577867325,0.025329194121206038,-3.056399946,-140.375,7.048237827033378E-5,-1.17E-05,9.39764694731611E-5,0,0.1345362365245819,1.1172980070114136,10.12399959564209,0.013752007,0,160.1999969482422,-86.91551,40.3848209,-104.8391125,-12.41349975,-30.96054935,-0.021614595,0.013274181034201039,7.048237429654154E-4,-44.77912296,-42.35388515,4.6187978982925415,9.921165364459881,-0.25045361,-0.199652592,Drive
119,0.005775813,-8.25E-05,0.002733417,9.937383753582111,-0.252137878,-0.194146776,0.9989526260246351,-0.012249958,-0.010443183,0.042831055060463044,0.019822811,0.025371541657928123,-3.05614471,-135.4444444,2.6687506125172945E-5,2.579791561781781E-4,-2.39E-04,0,0.1345362365245819,1.1272979974746704,10.086000442504883,0.012601561844348907,0,160.1999969482422,-86.91551,40.384821,-104.8064163,-12.41740373,-30.96481941,-0.02165839,0.013543907245530666,3.721423665269558E-4,-44.74630505,-42.35717922,4.615015883445739,9.937383753582111,-0.252137878,-0.194146776,Drive
120,0.001520907,1.6039566507617246E-4,1.0070797887820642E-4,9.938998333,-0.251583231,-0.1976547,0.9989543551380194,-0.012224281,-0.010479863,0.042789340597911944,0.019899361197230885,0.025322551,-3.0562287,-133.25,1.452986243660155E-4,1.2750694419718484E-4,5.782288566991253E-5,0,0.24839484691619873,1.1372979879379272,10.048999786376953,0.006761405,0,160.1999969482422,-86.91551,40.384821,-104.8882781,-12.42472372,-30.98031347,-0.021539778,0.013413434992860821,6.686701621290621E-4,-44.82828907,-42.36462124,4.598911867141724,9.938998333,-0.251583231,-0.1976547,Drive
121,-2.07E-04,-2.22E-04,0.001070103,9.938603438219978,-0.251708099,-0.196864837,0.9989544529359318,-0.012210039,-0.010486936,0.042789439,0.019914708706071076,0.025294702084174434,-3.056228432,-137.7777778,6.227083707644234E-5,2.9356250521338104E-4,1.0378443459681805E-5,0,0.5103920102119446,1.147297978401184,10.038999557495117,0.007768687,0,160.1999969482422,-86.91551,40.3848211,-104.8263026,-12.39532173,-30.94127333,-0.021622806,0.013579490612649802,6.212257204839544E-4,-44.76619125,-42.33497528,4.6381959009170535,9.938603438219978,-0.251708099,-0.196864837,Drive
122,-0.010042191,-9.20E-04,3.608197552486531E-4,9.922949249927814,-0.25224147,-0.197660955,0.9989542110452374,-0.012219339,-0.010491206,0.042791291999006734,0.019922413,0.025313681,-3.05622499,-140.7777778,1.6902084462344646E-4,1.3936805715151492E-4,3.187673576673475E-4,0,0.5,1.157297968864441,10.079000473022461,0.005932466,0,160.1999969482422,-86.9155099,40.3848211,-104.8868147,-12.42167374,-30.97079742,-0.021516056,0.013425296082079988,9.296146245194075E-4,-44.82670296,-42.36230339,4.608305888175964,9.922949249927814,-0.25224147,-0.197660955,Drive
123,-0.017817071,-0.004027572,3.5492251220258694E-6,9.884799688765145,-0.259290211,-0.197120381,0.9989521769643988,-0.012433367,-0.01049495,0.04277616,0.019912120352670985,0.025741386941625078,-3.056259192,-141.25,2.668750160418957E-5,8.006249690084781E-5,-4.89E-05,0,0.3080584406852722,1.1672979593276978,10.130999565124512,0.003341206,0,160.1999969482422,-86.9155099,40.3848211,-104.851678,-12.42094168,-30.98409533,-0.021658389,0.013365990572690386,5.619201579727956E-4,-44.79181084,-42.3603513,4.596227903366088,9.884799688765145,-0.259290211,-0.197120381,Drive
124,-0.004165548,-7.16E-04,0.00119973,9.879921098357265,-0.258465499,-0.195563885,0.9989505277096646,-0.012595747,-0.010495185,0.042767257,0.019899041889217293,0.026065706429116934,-3.056279891,-137.4444444,1.2157639732710945E-4,1.7495139149352186E-4,-1.48E-06,0,0.3080584406852722,1.1772979497909546,10.25,0.001469976,0,160.1999969482422,-86.9155099,40.3848211,-104.9025524,-12.40471578,-30.95920734,-0.021563501,0.013460879458241093,6.093646148762222E-4,-44.84268501,-42.34485737,4.622091898918152,9.879921098357265,-0.258465499,-0.195563885,Drive
125,0.002018604,-5.39E-04,6.554499991889139E-4,9.885868276207193,-0.259110167,-0.195145722,0.9989489288006014,-0.012631587,-0.01045375,0.042804225,0.019812216,0.026134524476325628,-3.056205444,-142,5.040972525235808E-5,9.19236121156696E-5,1.408506870875587E-4,0,0.5575840473175049,1.1872979402542114,10.36299991607666,5.173847312107682E-4,0,160.1999969482422,-86.9155099,40.3848211,-104.8722965,-12.42984775,-30.95676746,-0.021634667,0.013377852,7.516979545047416E-4,-44.81242901,-42.36950127,4.623799882,9.885868276207193,-0.259110167,-0.195145722,Drive
126,0.003303556,-3.28E-05,4.2032674678321025E-4,9.892210515957434,-0.257873101,-0.195029566,0.998948002,-0.012604791,-0.010437076,0.042837775990511605,0.019780285095850243,0.026080218930412263,-3.056137377,-144.8888889,1.2157639619686361E-4,1.2750694419718484E-4,6.96840110569469E-5,0,0.19416487216949463,1.1972979307174683,10.46500015258789,0.008829172,0,160.1999969482422,-86.9155101,40.3848212,-104.8820562,-12.41972172,-30.95103342,-0.021563501,0.013413435047112622,6.805312824299903E-4,-44.82231117,-42.36035122,4.628801927566529,9.892210515957434,-0.257873101,-0.195029566,Drive
127,0.009426034,4.906370662725889E-4,-0.001321756,9.905777597890317,-0.2565344,-0.196864837,0.998948604,-0.012540585,-0.01042086,0.04284646,0.019753103,0.025950704,-3.05611842,-140.5,8.222943870350718E-5,-1.17E-04,-1.17E-05,0,0.5575840473175049,1.2072980403900146,11.265999794006348,0.003732513,0,160.1999969482422,-86.91551,40.3848212,-104.916948,-12.40081166,-31.0305773,-0.021602847,0.013168457,5.9910019011183E-4,-44.85720291,-42.34107555,4.550111908912658,9.905777597890317,-0.2565344,-0.196864837,Drive
128,0.019185409,0.002824087,-1.51E-04,9.946383105898366,-0.251725521,-0.197352695,0.9989529055299111,-0.012380479,-0.010468825,0.042781012,0.019864259,0.025633571126941337,-3.056247859,-144.3333333,7.41319489005266E-5,2.2239584331084223E-4,-9.64E-05,0,0.3440930247306824,1.2172980308532715,11.503999710083008,0.025375233963131905,0,160.1999969482422,-86.9155095,40.384821,-104.8127602,-12.40483776,-30.9908053,-0.021610945,0.013508323905537429,5.144757197184253E-4,-44.75277103,-42.34449108,4.589395890235901,9.946383105898366,-0.251725521,-0.197352695,Drive
129,0.00315444,0.001270112,0.002508409,9.949577433391681,-0.250668499,-0.19491341,0.9989547382280665,-0.012225534,-0.010454176,0.042786334,0.019847992970382127,0.025322805421010963,-3.056234094,-144.25,-8.90E-06,2.6984028495595004E-4,-7.26E-05,0,0.13601469993591309,1.2272980213165283,11.413000106811523,0.028317234,0,160.1999969482422,-86.9155092,40.3848208,-104.8386246,-12.38251175,-31.00324936,-0.021693973,0.013555768352833767,5.381979444968397E-4,-44.77826931,-42.32204334,4.577683897018432,9.949577433391681,-0.250668499,-0.19491341,Drive
130,-3.15E-04,-5.97E-04,3.786536964397986E-4,9.946383170711185,-0.251853294,-0.19491341,0.99895136,-0.012194408,-0.010346901,0.042900025121216635,0.019633343,0.025253688030451246,-3.056003212,-142.3333333,2.0460418122594508E-4,3.26180496045108E-5,1.6457290338912925E-4,0,0.3440930247306824,1.2372980117797852,11.640999794006348,0.016601616516709328,0,160.1999969482422,-86.9155092,40.3848208,-104.8781523,-12.40068974,-30.95884138,-0.021480473,0.013318546170603882,7.754201736319267E-4,-44.81779713,-42.34083115,4.620627894,9.946383170711185,-0.251853294,-0.19491341,Drive
131,-0.002328891,-1.31E-04,2.592470750067998E-4,9.943501243,-0.250697063,-0.195061062,0.9989520936336332,-0.012155963,-0.010345932,0.042894192473980984,0.019634824300419938,0.025176669,-3.056014181,-145.1111111,-3.41E-05,6.671872292871325E-5,1.0378452501648549E-5,0,0.44407206773757935,1.247298002243042,11.71500015258789,0.002634661,0,160.1999969482422,-86.9155092,40.3848209,-104.8430161,-12.42862777,-31.02642944,-0.021575362,0.013496462771108428,6.212257250049378E-4,-44.78278305,-42.36889133,4.553893899917602,9.943501243,-0.250697063,-0.195061062,Drive
132,-6.25E-04,-0.001343228,-3.27E-04,9.940270349817368,-0.253104879,-0.195680042,0.998952442,-0.012235191,-0.010361511,0.042859681,0.019660097501665644,0.025335639,-3.056085068,-136.875,-2.09E-04,-1.33E-05,8.154512062053947E-5,0,0.6860029101371765,1.3173469305038452,10.920999526977539,0.017061123624444008,0,160.1999969482422,-86.9155092,40.3848211,-104.8205684,-12.43570376,-30.99739338,-0.021741417,0.013425296118247856,6.923923902982141E-4,-44.76033504,-42.37535748,4.582685914039612,9.940270349817368,-0.253104879,-0.195680042,Drive
133,-4.37E-04,0.001113704,6.128932955195603E-4,9.940313866994913,-0.251165067,-0.195912354,0.9989543059497203,-0.012242569,-0.010409483,0.042802523,0.019756805260204575,0.025353353398228154,-3.056200849,-140.2222222,-1.85E-04,8.154511214369565E-5,-2.27E-04,0,0.2801785171031952,1.327346920967102,10.930999755859375,0.015285630710422993,0,160.1999969482422,-86.915509,40.3848212,-104.8738823,-12.40703374,-30.98738934,-0.021717695,0.013520185,3.8400348852325267E-4,-44.81389313,-42.34680916,4.591713924407959,9.940313866994913,-0.251165067,-0.195912354,Drive
134,-0.003809077,6.901155976415838E-4,5.954735487410166E-4,9.933329822947679,-0.25260831,-0.19493664,0.998953492,-0.012312844,-0.010380474,0.042808436,0.019692704642137276,0.025491421,-3.056189512,-137.25,-5.49E-05,-1.48E-06,-7.26E-05,0,0.18384777009487152,1.3373470306396484,10.954000473022461,0.040132973343133926,0,160.1999969482422,-86.9155083,40.3848208,-104.8353302,-12.40581368,-31.06803141,-0.021587223,0.013437157207467024,5.381979428014709E-4,-44.77497505,-42.34607723,4.511925888061524,9.933329822947679,-0.25260831,-0.19493664,Drive
135,5.705287155595798E-4,-7.35E-04,8.553127640659369E-4,9.933922258395594,-0.252648965,-0.195215416,0.9989563828533136,-0.012251668,-0.010395172,0.042754938590873794,0.019728637472229096,0.025369373448554753,-3.056295925,-138.3333333,4.447915803785753E-6,1.6457289378203957E-4,1.527117893045533E-4,0,0.16278821229934692,1.3473470211029053,10.937999725341797,0.047873911,0,160.1999969482422,-86.9155077,40.3848206,-104.8372822,-12.44192575,-31.05668537,-0.021527917,0.013603213,7.635590601124737E-4,-44.77717113,-42.3817012,4.524003887176514,9.933922258395594,-0.252648965,-0.195215416,Drive
136,-5.84E-04,2.6641442225529597E-4,2.614284077515969E-4,9.934151686510994,-0.251252184,-0.196980994,0.9989598359052951,-0.012213949,-0.010453063,0.042670792,0.019849676352280837,0.025297266,-3.056465204,-138.5,-1.17E-05,1.5271178731032147E-4,1.5271179682503527E-4,0,0.1140175461769104,1.357347011566162,10.880999565124512,0.033167287707328796,0,160.1999969482422,-86.9155075,40.3848207,-104.8977945,-12.39654172,-31.05985741,-0.021544112,0.013591351721865626,7.635590647203991E-4,-44.83756119,-42.33607323,4.520221881866455,9.934151686510994,-0.251252184,-0.196980994,Drive
137,-0.008498497,-0.001606641,7.284176581114242E-4,9.920700739888312,-0.253743739,-0.195168953,0.998958364,-0.012259157,-0.010394883,0.042706455,0.019728656080596655,0.025383356,-3.056393121,-141.7777778,-1.02E-04,-1.20E-04,4.5961788539024234E-5,0,0.1140175461769104,1.367347002029419,10.854999542236328,0.027992249,0,160.1999969482422,-86.9155072,40.3848208,-104.8521661,-12.46486175,-31.01471746,-0.021634667,0.013318546107310114,6.568090599120676E-4,-44.79205513,-42.40512524,4.565849905014038,9.920700739888312,-0.253743739,-0.195168953,Drive
138,-0.016911571,-0.002812524,-2.60E-04,9.884799651729251,-0.258964971,-0.196098205,0.998957426,-0.012494389,-0.010428616,0.042651954640462564,0.019777571,0.025855206,-3.05650724,-132.375,-7.41E-06,5.7822887930404214E-5,8.154512796713745E-5,0,0.1063014566898346,1.3773469924926758,10.803000450134277,0.025971742,0,160.1999969482422,-86.9155069,40.3848208,-104.9228041,-12.45827378,-31.0522933,-0.021539778,0.013496462825360229,6.923923965145662E-4,-44.86318096,-42.39853725,4.527785906791687,9.884799651729251,-0.258964971,-0.196098205,Drive
139,-0.004483584,-8.67E-05,0.001271958,9.879177667562244,-0.258006681,-0.194611403,0.9989579186856168,-0.012608277,-0.01045305,0.04260099,0.019818101132523667,0.026083852155405342,-3.056611929,-140.4444444,-5.49E-05,-6.08E-05,5.782290092823141E-5,0,0.1063014566898346,1.3873469829559326,10.677000045776367,0.02193323,0,160.1999969482422,-86.9155067,40.3848207,-104.8729062,-12.43143372,-30.9686014,-0.021587223,0.013377851707119387,6.686701700407831E-4,-44.81267307,-42.37194122,4.610501899719238,9.879177667562244,-0.258006681,-0.194611403,Drive
140,0.001388522,2.896042124738971E-4,5.042877012086146E-4,9.884244111868052,-0.257792125,-0.194623912,0.9989563909549157,-0.012611019,-0.010412305,0.042645912,0.019735257,0.026086758044593542,-3.056520964,-136.375,-1.38E-04,1.1712845326717762E-4,-4.89E-05,0,0.092195444,1.3973469734191895,10.628999710083008,0.019042628,0,160.1999969482422,-86.9155065,40.3848207,-104.9312222,-12.38726969,-30.99873543,-0.021670251,0.013555768,5.619201675798852E-4,-44.87098915,-42.32765526,4.5819538831710815,9.884244111868052,-0.257792125,-0.194623912,Drive
141,0.003442912,-9.26E-04,-6.32E-04,9.890444977769574,-0.259670623,-0.194797252,0.9989544882357699,-0.012647198,-0.010366446,0.042690764,0.019639360781722855,0.026156026,-3.056430604,-135.6666667,-2.09E-04,-1.91E-04,-1.79E-04,0,0.1063014566898346,1.4073469638824463,10.53600025177002,0.015198036096990108,0,160.1999969482422,-86.9155064,40.3848206,-104.8963302,-12.46107978,-30.98909733,-0.021741417,0.013247379418281675,4.3144792960323754E-4,-44.8370731,-42.40085533,4.591347870826721,9.890444977769574,-0.259670623,-0.194797252,Drive
142,0.002238838,6.282792508023456E-4,-2.95E-04,9.894789177237206,-0.259455732,-0.194332627,0.9989538545747405,-0.012721165,-0.01035958,0.042685397,0.019619517,0.026303148367306562,-3.056442453,-133.375,-2.45E-04,-4.89E-05,-1.48E-06,0,0.092195444,1.4173469543457031,11.300000190734863,0.006392447,0,160.1999969482422,-86.9155064,40.3848207,-104.9180464,-12.44656172,-31.00410334,-0.021777001,0.013389712787296587,6.093646086598702E-4,-44.85805717,-42.38645931,4.576341862678528,9.894789177237206,-0.259455732,-0.194332627,Drive
143,0.020479674,0.002529078,0.002205644,9.931532387594574,-0.256615707,-0.192938749,0.9989568695281316,-0.012636572,-0.010396224,0.042631024,0.019701345,0.026136157039589096,-3.056550804,-135.1111111,-2.80E-04,2.713228979383062E-4,2.2239562065241116E-5,0,0.1063014566898346,1.427346945,11.345000267028809,0.00930029,0,160.1999969482422,-86.9155063,40.3848208,-104.8638782,-12.46974174,-31.05509933,-0.021812584,0.013709962783941945,6.330868323080386E-4,-44.80376686,-42.40963902,4.525467891693115,9.931532387594574,-0.256615707,-0.192938749,Drive
144,0.011321595571573499,0.001685326,5.532828638854536E-4,9.952934320690563,-0.253813434,-0.193542762,0.9989568550609847,-0.012411008,-0.010289288,0.042723488,0.019504298,0.025678129288033376,-3.056358983,-141.5555556,-1.02E-04,-7.26E-05,-4.89E-05,0,0.1063014566898346,1.4373469352722168,11.180999755859375,0.007149321,0,160.1999969482422,-86.9155062,40.3848207,-104.8943781,-12.47132775,-31.00349335,-0.021634667,0.013365990554606452,5.619201613635331E-4,-44.83499912,-42.41195713,4.576951904296875,9.952934320690563,-0.253813434,-0.193542762,Drive
145,8.461475372314453E-4,3.3795203153903666E-4,4.931030651697746E-4,9.951424246852838,-0.253842472,-0.192985213,0.9989565559304677,-0.012345126,-0.010261435,0.042756314,0.019453363958746195,0.025544748569910344,-3.056291404,-147.25,-7.05E-05,-5.87E-05,-5.87E-05,0,0.1140175461769104,1.4473469257354736,11.270000457763672,0.004286511,0,160.1999969482422,-86.9155062,40.3848207,-104.8805922,-12.45668779,-31.02777136,-0.021602848,0.013379904575860845,5.521119394241116E-4,-44.82072498,-42.39756123,4.552429919242859,9.951424246852838,-0.253842472,-0.192985213,Drive
146,-0.002077186,3.891488880787081E-4,4.577272146650888E-4,9.946838952962635,-0.253395271,-0.192357967,0.9989559071735271,-0.01232467,-0.010224265,0.042786134,0.019380044155907862,0.02550128,-3.056230385,-143.8888889,-7.86E-05,6.968399862424263E-5,1.2898956509126188E-4,0,0.086023256,1.457347035,11.244000434875488,0.005638069,0,160.1999969482422,-86.9155061,40.3848207,-104.8444804,-12.45924972,-30.96664938,-0.021610945,0.013508323905537429,7.398368358991823E-4,-44.78424694,-42.39939121,4.614039897918701,9.946838952962635,-0.253395271,-0.192357967,Drive
147,-0.01036407,-0.002174453,2.7687370198444254E-4,9.930109431442705,-0.256002982,-0.192497355,0.9989557370398808,-0.012335976,-0.010230804,0.042785336,0.019392176703052613,0.025524413647148216,-3.056232353,-133.25,-9.04E-05,4.5961774410951194E-5,1.408506842619441E-4,0,0.092195444,1.1065980195999146,10.145999908447266,0.019757961854338646,0,160.1999969482422,-86.9155062,40.384821,-104.8927921,-12.49328777,-30.99019531,-0.021622806,0.013484601690931228,7.516979528093729E-4,-44.83329102,-42.43318531,4.590981903076172,9.930109431442705,-0.256002982,-0.192497355,Drive
148,0.002857838,0.001241183,0.001354624,9.932484821208472,-0.254089305,-0.192334736,0.9989567873547378,-0.012423946,-0.01029037,0.042721010057382214,0.019505428276883747,0.025704026963670277,-3.056364187,-140.7777778,-2.33E-04,1.289895583097868E-4,-7.26E-05,0,0.092195444,1.1165980100631714,10.102999687194824,0.019114438444375992,0,160.1999969482422,-86.9155062,40.3848212,-104.8829101,-12.48779778,-30.97274933,-0.021765139,0.013567629469178834,5.381979377153646E-4,-44.82279907,-42.42806114,4.606963906288147,9.932484821208472,-0.254089305,-0.192334736,Drive
149,0.002254921,0.001265688,-4.15E-04,9.938600384272062,-0.252419779,-0.192898318,0.998955389,-0.012339368,-0.010221441,0.042794626169991724,0.019372939032692355,0.025530572564711848,-3.056213587,-134.5,1.3492014530358962E-4,-1.68E-04,1.6457289660765418E-4,0,0.1140175461769104,1.1265980005264282,10.052000045776367,0.010322317481040955,0,160.1999969482422,-86.9155062,40.3848212,-104.8769322,-12.43192172,-30.9266333,-0.021397445,0.013271101687139677,7.754201679806976E-4,-44.81694294,-42.37169743,4.654055924415588,9.938600384272062,-0.252419779,-0.192898318,Drive
150,1.1583902303454946E-4,-0.001497188,7.677635232221734E-4,9.937714780418618,-0.2545307,-0.192659974,0.9989573851372432,-0.01229149,-0.010265055,0.042751459,0.019465274855639172,0.025437783,-3.056300288,-132.7777778,4.447914673539909E-6,2.3573956303117634E-4,2.223955867450359E-5,0,0.12041594833135605,1.136597990989685,10.008000373840332,0.004230937,0,160.1999969482422,-86.9155062,40.3848212,-104.8398436,-12.46620371,-30.96713749,-0.021527917,0.013674379471074609,6.330868323080386E-4,-44.77961082,-42.40671108,4.612819876670837,9.937714780418618,-0.2545307,-0.192659974,Drive
151,-0.006638314,-9.22E-04,8.38525954959462E-4,9.924353858799611,-0.255169559,-0.192311504,0.998956363,-0.012365926,-0.010258792,0.042755382,0.019446341,0.025586067961112968,-3.056293559,-135.5,5.189236366524569E-5,-4.89E-05,1.0526735161530596E-4,0,0.12041594833135605,1.146597981452942,9.987999916,0.001348322,0,160.1999969482422,-86.9155062,40.3848212,-104.84631,-12.43960768,-31.03252935,-0.021480473,0.013389712760170687,7.161146190324889E-4,-44.78607697,-42.38011539,4.5476718997955325,9.924353858799611,-0.255169559,-0.192311504,Drive
152,-0.004020987,-9.16E-04,-0.001336451,9.922024949,-0.255146329,-0.194286164,0.9989558782392335,-0.012396757,-0.010254527,0.042758720049869664,0.019435115267061494,0.025647374900799352,-3.056287296,-119.4444444,1.1119792335078988E-4,-1.48E-06,4.729618012082302E-4,0,0.1140175461769104,1.1565979719161987,9.994999885559082,2.74879188509658E-4,0,160.1999969482422,-86.9155062,40.3848212,-104.8526542,-12.47279179,-31.01886536,-0.021421167,0.013437157,0.001083809,-44.79266518,-42.4126894,4.560725922584534,9.922024949,-0.255146329,-0.194286164,Drive
153,-0.016739642,-0.001868525,-0.00115608,9.887076368609678,-0.255474472,-0.19656283,0.9989612374490905,-0.012346157,-0.01039792,0.04261322,0.019729747,0.025555618830676217,-3.056581409,-133.25,4.447914108416988E-6,-1.32E-04,2.001562332101528E-4,0,0.12041594833135605,1.1665979623794556,10.026000022888184,2.4410870537394658E-5,0,160.1999969482422,-86.9155062,40.3848212,-104.8904739,-12.42081971,-31.05070732,-0.021527917,0.013306685045216848,8.11003505148319E-4,-44.83072906,-42.36059528,4.529981894493103,9.887076368609678,-0.255474472,-0.19656283,Drive
154,-0.00367657,-0.00130465,-1.34E-04,9.882104818103382,-0.257106469,-0.196098205,0.9989612262982589,-0.012501157,-0.010448585,0.042556042,0.019819392930143155,0.025868527286757644,-3.056699938,-132,-7.05E-05,-1.41E-04,-9.40E-05,0,0.1140175461769104,1.1765979528427124,10.072999954223633,0.003806032,0,160.1999969482422,-86.9155061,40.3848212,-104.8788841,-12.42813972,-30.99263546,-0.021602847,0.013297675114769775,5.168707474904994E-4,-44.81852909,-42.36828125,4.587687907218933,9.882104818103382,-0.257106469,-0.196098205,Drive
155,0.001913274,-8.89E-04,-0.00105258,9.886936919203082,-0.257922466,-0.196214361,0.998959356,-0.012563005,-0.010413174,0.042590322,0.019742499,0.025989787,-3.056631445,-131.1111111,-5.49E-05,-2.27E-04,3.4100673324202446E-5,0,0.1140175461769104,1.1865979433059692,10.15999984741211,0.00564729,0,160.1999969482422,-86.9155061,40.3848213,-104.8894977,-12.48352777,-30.94847141,-0.021587223,0.013211796096372373,6.449479458274916E-4,-44.82975288,-42.4240353,4.631851902008057,9.886936919203082,-0.257922466,-0.196214361,Drive
156,0.003160023,2.08396356082657E-4,-0.001204985,9.893465060632206,-0.257536248,-0.196469905,0.9989590662197002,-0.012592706,-0.01041434,0.042588139,0.019742378,0.026049194296876205,-3.056636373,-135.125,-2.09E-04,-2.39E-04,-1.33E-05,0,0.1140175461769104,1.196597933769226,10.178000450134277,0.003792151,0,160.1999969482422,-86.9155061,40.3848213,-104.835452,-12.41886775,-30.98958538,-0.021741417,0.013199935,5.975034990962775E-4,-44.77546322,-42.35876511,4.590859889984131,9.893465060632206,-0.257536248,-0.196469905,Drive
157,0.003405099,8.506259871918021E-4,-0.00104519,9.897995171037692,-0.256711538,-0.196237593,0.9989589423809236,-0.012578677,-0.010405916,0.042597251537355406,0.019726489064762893,0.026020625,-3.056617658,-130.75,-5.49E-05,-1.91E-04,2.2239561500118196E-5,0,0.1140175461769104,1.2065980434417725,11.480999946594238,0.0016531,0,160.1999969482422,-86.9155061,40.3848213,-104.8630241,-12.42691974,-30.93785742,-0.021587223,0.013247379427323642,6.330868351336532E-4,-44.80327892,-42.36706123,4.641611914634705,9.897995171037692,-0.256711538,-0.196237593,Drive
158,0.018710414182792588,5.835129798037335E-4,-4.71E-04,9.934660260493938,-0.256940835,-0.195774306,0.9989586194742073,-0.012527549,-0.010380179,0.042625397262932026,0.019678669412014554,0.025916792,-3.05655979,-140,-2.45E-04,-3.71E-05,-2.51E-04,0,0.14866068959236145,1.2165980339050293,11.310999870300293,6.469172076322138E-4,0,160.1999969482422,-86.9155061,40.3848213,-104.951352,-12.47559776,-30.93956543,-0.021777001,0.013401573867473787,3.602812552679945E-4,-44.89136292,-42.41610546,4.641367907524109,9.934660260493938,-0.256940835,-0.195774306,Drive
159,0.009540521,1.7959776433926184E-4,0.001055295,9.951598547037365,-0.254368082,-0.193565994,0.9989585685498507,-0.01238301,-0.010330339,0.042681377,0.019589814673928382,0.025624844073815253,-3.056443879,-139.8888889,6.375346701248612E-5,-9.64E-05,2.476006624225563E-4,0,0.15620499849319458,1.2265980243682861,11.333000183105469,1.8859381088986993E-4,0,160.1999969482422,-86.9155061,40.3848213,-104.8758346,-12.50133977,-31.02411139,-0.021468612,0.013342268,8.58447945663181E-4,-44.81584507,-42.4409935,4.554381895065307,9.951598547037365,-0.254368082,-0.193565994,Drive
160,0.001459603,0.001080377,2.3118963519346366E-4,9.951688581300013,-0.251554192,-0.193728613,0.9989580812963467,-0.012277228,-0.010281157,0.042735407,0.019499079,0.025410340845729542,-3.056332591,-143.375,-2.33E-04,1.037843780845259E-5,1.882951225163144E-4,0,0.1140175461769104,1.236598014831543,11.347000122070312,0.006234729,0,160.1999969482422,-86.915506,40.3848214,-104.8483846,-12.52659373,-30.99361132,-0.021765139,0.013449018341896025,7.991423927591119E-4,-44.78888283,-42.4668573,4.585491890907288,9.951688581300013,-0.251554192,-0.193728613,Drive
161,-0.002091223,-8.98E-04,8.224302414551522E-4,9.946850629,-0.253563696,-0.1931246,0.998958211,-0.012257923,-0.010278757,0.042738519355799386,0.019495835039511467,0.025371624410007763,-3.056325963,-140.75,-1.93E-05,9.340622340265698E-5,9.340623753073001E-5,0,0.1345362365245819,1.2465980052947998,11.53600025177002,0.004465238,0,160.1999969482422,-86.915506,40.3848214,-104.8729061,-12.48389378,-30.98824333,-0.021551639,0.013532046138227564,7.042535072084046E-4,-44.81303898,-42.42379108,4.592811908721924,9.946850629,-0.253563696,-0.1931246,Drive
162,-0.001846184,-4.90E-04,1.9030605705039016E-4,9.943911857975339,-0.253772779,-0.192799361,0.9989560616826548,-0.01230315,-0.010229477,0.042787593,0.019392251,0.025458750179381047,-3.056227249,-136.2222222,-1.93E-05,-1.68E-04,1.0526734370358505E-4,0,0.14866068959236145,1.1059379577636719,10.286999702453613,0.016869273,0,160.1999969482422,-86.9155061,40.3848217,-104.8865703,-12.53598777,-30.9416394,-0.021551639,0.013271101714265578,7.161146156417513E-4,-44.8262149,-42.47539726,4.637951908111572,9.943911857975339,-0.253772779,-0.192799361,Drive
163,-0.018681003,-0.002546102,-2.80E-04,9.911219495,-0.257100662,-0.192009499,0.9989539768833381,-0.012386863,-0.010194909,0.042820255,0.019315214827656746,0.025623712,-3.056162408,-137.5555556,1.174706211224055E-5,-2.35E-04,1.0572354613731687E-4,0,0.21931712329387665,1.1159379482269287,10.279999732971191,0.016479131,0,160.1999969482422,-86.9155061,40.3848218,-104.930002,-12.47132771,-30.97775143,-0.021520618,0.013203698586529264,7.165708151520588E-4,-44.86976902,-42.41049339,4.602327899932861,9.911219495,-0.257100662,-0.192009499,Drive
164,-0.014772758,-0.00225853,-7.77E-04,9.880641279868708,-0.261860171,-0.192265042,0.9989516816092926,-0.012683801,-0.0102246,0.042779765,0.019350402,0.026218823220544647,-3.056249329,-141.375,-9.04E-05,-1.91E-04,5.7822904318968934E-5,0,0.16278821229934692,1.1259379386901855,10.27400016784668,0.009026115,0,160.1999969482422,-86.9155061,40.3848218,-104.9740441,-12.51268578,-30.94102926,-0.021622806,0.013247379481575443,6.686701734315206E-4,-44.91368889,-42.45270527,4.638683901,9.880641279868708,-0.261860171,-0.192265042,Drive
165,0.005040474,1.7995192009268455E-4,-7.79E-04,9.889562125344879,-0.261099345,-0.193775077,0.9989536016890146,-0.01278097,-0.010314473,0.042684307,0.01952432,0.026418792355118445,-3.056444492,-143.1111111,-2.68E-04,8.154511440418733E-5,-7.26E-05,0,0.12041594833135605,1.1359379291534424,10.255000114440918,0.003742975,0,160.1999969482422,-86.9155061,40.3848218,-104.8661961,-12.50524376,-30.96396544,-0.021800723,0.013520185,5.381979456270854E-4,-44.8059631,-42.44562916,4.615869898796081,9.889562125344879,-0.261099345,-0.193775077,Drive
166,0.021430858,0.002654478,4.5446993656528804E-4,9.936207632,-0.256148176,-0.193937696,0.9989565824999392,-0.012615912,-0.010347782,0.04265566,0.019605619380775006,0.026091239315647524,-3.056499868,-144.375,-1.38E-04,1.4085067239436274E-4,-3.71E-05,0,0.1140175461769104,1.1459380388259888,10.22700023651123,0.001190204,0,160.1999969482422,-86.9155061,40.3848218,-104.8566805,-12.49218971,-31.01227736,-0.021670251,0.013579490585523902,5.737812788388465E-4,-44.79681293,-42.43208744,4.567069892883301,9.936207632,-0.256148176,-0.193937696,Drive
167,6.583223065126289E-4,2.8276703890087537E-4,0.001361089,9.937498918,-0.255108829,-0.193772618,0.9989590233969456,-0.012413147,-0.010353474,0.042656603,0.019634125139383438,0.025686561916638345,-3.056494588,-138.2222222,-6.67E-05,1.7643400786661553E-4,9.340623583536124E-5,0,0.14866068959236145,1.1559380292892456,10.220000267028809,2.4197183665819466E-4,0,160.1999969482422,-86.9155061,40.3848218,-104.8598522,-12.47230373,-30.93419737,-0.021599084,0.013615073934559104,7.042535060781587E-4,-44.7998629,-42.41256718,4.645759906768799,9.937498918,-0.255108829,-0.193772618,Drive
168,-0.018271483,-0.002538234,7.930859489348329E-4,9.896810327918784,-0.26093963,-0.194309395,0.9989581131240697,-0.012586619,-0.010383775,0.042619706,0.019680976885759715,0.026035058646670824,-3.056572275,-135.875,-1.97E-04,1.1712844026935043E-4,8.154512796713745E-5,0,0.1063014566898346,1.1659380197525024,10.223999977111816,2.3182579752756283E-5,0,160.1999969482422,-86.9155061,40.3848218,-104.8727838,-12.46656978,-30.93200134,-0.021729556,0.013555768,6.923923965145662E-4,-44.81267296,-42.40610115,4.648199882507324,9.896810327918784,-0.26093963,-0.194309395,Drive
169,-0.005486599,-0.001050287,0.001029921,9.889422759269047,-0.262066349,-0.193937696,0.9989568915181947,-0.012758158,-0.010405101,0.042592102,0.019709833,0.026379107524758402,-3.056631093,-144.5555556,-3.04E-04,-1.48E-06,5.782289923286264E-5,0,0.092195444,1.1759380102157593,10.211999893188477,5.646060162689537E-5,0,160.1999969482422,-86.9155061,40.3848218,-104.8855936,-12.48450379,-30.94688547,-0.021836306,0.013437157252676857,6.68670170605906E-4,-44.82511688,-42.42476761,4.635023908615112,9.889422759269047,-0.262066349,-0.193937696,Drive
170,7.185611910032995E-4,-1.36E-04,3.2204404039290344E-4,9.891374236171686,-0.262507742,-0.194541709,0.9989559725650305,-0.012812936,-0.010396108,0.042599503,0.019687036287437364,0.026487953671552603,-3.056617005,-143.125,-1.26E-04,1.4085066617801063E-4,-1.48E-06,0,0.092195444,1.1859380006790161,10.208000183105469,3.656440821941942E-5,0,160.1999969482422,-86.9155061,40.3848218,-104.9091402,-12.55648379,-31.00788534,-0.021658389,0.013579490567439968,6.093646126157305E-4,-44.8487851,-42.4966251,4.571705894470215,9.891374236171686,-0.262507742,-0.194541709,Drive
171,0.001727947,0.001113216,0.001015326,9.896159866,-0.261224216,-0.193473069,0.9989555865815543,-0.012823254,-0.010388103,0.042607368919455886,0.019669955,0.026508045337587886,-3.056601207,-141.4444444,-2.68E-04,5.782288566991253E-5,-1.32E-04,0,0.1140175461769104,1.195937991142273,10.208000183105469,0.004976694,0,160.1999969482422,-86.9155061,40.3848219,-104.9197544,-12.50231576,-30.98458334,-0.021800723,0.013496462789192362,4.788923853764184E-4,-44.86037491,-42.44282333,4.595495924949646,9.896159866,-0.261224216,-0.193473069,Drive
172,0.004584459,0.001165871,9.649728353206927E-4,9.902199949,-0.260643431,-0.192892287,0.9989543706178665,-0.012790945,-0.010340731,0.042657038,0.019576680577861574,0.026440431,-3.05649996,-145.3333333,-7.05E-05,5.873528201706134E-5,-1.76E-04,0,0.1140175461769104,1.2059379816055298,11.390000343322754,0.003454815,0,160.1999969482422,-86.9155061,40.3848219,-104.8553382,-12.50524378,-31.0062994,-0.021602848,0.013497375193625115,4.346413127048156E-4,-44.79559292,-42.44465328,4.5736578893661495,9.902199949,-0.260643431,-0.192892287,Drive
173,0.020707130432128906,0.003211341,9.854639907485073E-4,9.942666026,-0.255140521,-0.192845824,0.9989557023187285,-0.012585441,-0.010311658,0.042693753,0.019535006412747993,0.026028019131966007,-3.056422116,-142.125,-1.85E-04,6.96839952335051E-5,3.410067388932537E-5,0,0.092195444,1.2159379720687866,11.375,0.001686627,0,160.1999969482422,-86.9155061,40.3848219,-104.8968177,-12.55026185,-31.10219124,-0.021717695,0.013508323878411528,6.449479458274916E-4,-44.8364629,-42.49003723,4.479595899581909,9.942666026,-0.255140521,-0.192845824,Drive
174,0.008364983,0.001002525,-3.06E-05,9.957342425596368,-0.253717603,-0.193031675,0.9989555310277105,-0.012370288,-0.010235459,0.042779188,0.019398724,0.025593258,-3.056245376,-143.3333333,-1.73E-04,1.0378444024804727E-5,5.7822902623600174E-5,0,0.1140175461769104,1.2259379625320435,11.541999816894531,6.363653810694814E-4,0,160.1999969482422,-86.9155061,40.3848219,-104.8587547,-12.4998758,-30.9860474,-0.021705834,0.013449018387105858,6.686701717361519E-4,-44.79876537,-42.43940727,4.593909898,9.957342425596368,-0.253717603,-0.193031675,Drive
175,-4.15E-04,-1.04E-04,-2.10E-04,9.954212049836094,-0.254109633,-0.19437909,0.9989577201963629,-0.012325565,-0.01028609,0.042728715368266244,0.019505009380648437,0.025507223023806962,-3.056346942,-145.125,-4.30E-05,1.1712844366008795E-4,-2.52E-05,0,0.1140175461769104,1.2359379529953003,11.312999725341797,1.7122479039244354E-4,0,160.1999969482422,-86.9155061,40.3848219,-104.872784,-12.45815178,-30.96189142,-0.021575362,0.013555768,5.856423872721933E-4,-44.812673,-42.39792736,4.617943897247314,9.954212049836094,-0.254109633,-0.19437909,Drive
176,-0.002059557,-3.65E-04,0.001739916,9.949140998033377,-0.254916137,-0.193013358,0.9989585992202018,-0.012353934,-0.010321393,0.042691520153029454,0.01957412,0.025566193,-3.056422815,-141.8888889,-9.04E-05,1.0526733353137246E-4,1.2898957017736816E-4,0,0.086023256,1.2459379434585571,11.454000473022461,1.8996146536665037E-5,0,160.1999969482422,-86.9155061,40.3848219,-104.8148339,-12.5085378,-30.99287941,-0.021622806,0.013543907227446732,7.398368392899198E-4,-44.75472324,-42.44941124,4.586345901489258,9.949140998033377,-0.254916137,-0.193013358,Drive
177,-0.008268051,-0.001008044,2.9274835748579895E-4,9.937427298536578,-0.255343795,-0.194959872,0.9989596489563729,-0.012343081,-0.010349144,0.042663395,0.019631227026286634,0.025546316147863287,-3.056479642,-147.375,-4.30E-05,2.238784512070921E-4,4.596179419025345E-5,0,0.086023256,1.1053979396820068,10.034000396728516,0.006341062,0,160.1999969482422,-86.915506,40.384822,-104.9203638,-12.47071771,-30.95335136,-0.021575362,0.013662518345687574,6.568090627376822E-4,-44.86061886,-42.41024918,4.626971888542175,9.937427298536578,-0.255343795,-0.194959872,Drive
178,-0.003094664,-9.22E-04,0.001694959,9.927629535638014,-0.25679575,-0.194657865,0.9989607154744343,-0.012463522,-0.010420847,0.042585764948314835,0.019766358532083843,0.025791555,-3.056639023,-141.4444444,-2.80E-04,1.1712844705082548E-4,1.2898957526347445E-4,0,0.086023256,1.1153979301452637,9.965999603271484,0.00446457,0,160.1999969482422,-86.915506,40.384822,-104.867904,-12.52634978,-30.97152933,-0.021812584,0.013555768,7.398368426806574E-4,-44.80742676,-42.46673531,4.609647922515869,9.927629535638014,-0.25679575,-0.194657865,Drive
179,-2.89E-04,8.38018158107128E-5,0.00142966,9.926891882442733,-0.256543109,-0.194170008,0.9989595118078213,-0.012477376,-0.010389268,0.042617716,0.019701240801261465,0.025817186960462226,-3.0565745,-144,-2.09E-04,3.0690623397568184E-4,-2.52E-05,0,0.10000000149011612,1.12539804,9.961000442504883,0.002136232,0,160.1999969482422,-86.915506,40.384822,-104.9279282,-12.45985977,-30.95554735,-0.021741417,0.013745546132977148,5.856423889675621E-4,-44.86769508,-42.39963528,4.625507893562317,9.926891882442733,-0.256543109,-0.194170008,Drive
180,0.005265866,2.2769842333006626E-4,0.001140354,9.939965396251493,-0.254919823,-0.193171062,0.9989578752841765,-0.012418012,-0.010320762,0.042690020994943324,0.019567473167643963,0.025694153407245006,-3.056426919,-146.2222222,-1.14E-04,2.223954737204516E-5,5.78228981026168E-5,0,0.086023256,1.135398030281067,9.93500042,0.005703542,0,160.1999969482422,-86.915506,40.3848221,-104.8787622,-12.48486975,-31.04448542,-0.021646528,0.013460879413031259,6.686701694756602E-4,-44.81865082,-42.42476723,4.535593929290772,9.939965396251493,-0.254919823,-0.193171062,Drive
181,0.001505494,1.8265298925913297E-4,0.001289677,9.941739637874862,-0.254704934,-0.193217525,0.9989581337341895,-0.012378678,-0.01031555,0.042696689148075305,0.019560211839584205,0.025615241324815612,-3.056412759,-143.625,-1.06E-04,2.5843534352204116E-4,7.048235196494855E-5,0,0.086023256,1.1453980207443237,9.93500042,0.001325019,0,160.1999969482422,-86.915506,40.384822,-104.9069441,-12.48743173,-30.89723139,-0.021638089,0.013697075,6.813296232184467E-4,-44.8465889,-42.42684139,4.6819939613342285,9.941739637874862,-0.254704934,-0.193217525,Drive
182,-0.006783652,-5.50E-04,0.001135721,9.931898237,-0.255654514,-0.192497355,0.9989566224292644,-0.012400892,-0.010277863,0.042734628,0.019482025894725207,0.025657160894818676,-3.056336206,-143.5555556,-7.86E-05,-8.45E-05,6.968401557793027E-5,0,0.086023256,1.1553980112075806,9.93500042,0.004278154,0,160.1999969482422,-86.9155059,40.384822,-104.8552162,-12.50158372,-30.98775539,-0.021610945,0.013354129483471217,6.80531284690482E-4,-44.79571499,-42.44160324,4.592079930305481,9.931898237,-0.255654514,-0.192497355,Drive
183,-0.018963462,-0.002409581,-4.86E-04,9.891699457631528,-0.259754833,-0.193171063,0.9989545160126918,-0.012549112,-0.010264,0.042743874,0.019441516328494526,0.025952342463639175,-3.056319906,-143.6666667,-1.93E-05,-8.45E-05,1.2898957526347445E-4,0,0.086023256,1.1653980016708374,9.93500042,0.002910543,0,160.1999969482422,-86.9155059,40.384822,-104.8947442,-12.52378778,-30.95603542,-0.021551639,0.013354129465387284,7.398368426806574E-4,-44.83438896,-42.46368511,4.625263895988464,9.891699457631528,-0.259754833,-0.193171063,Drive
184,-0.006695321,-0.001632484,7.770376876719947E-5,9.882197750424876,-0.26152622,-0.193287219,0.9989548522291831,-0.01270309,-0.010325405,0.042675701123707506,0.019552990884601492,0.026263933900056532,-3.056460665,-142,-5.49E-05,3.410066258686694E-5,2.223956319548696E-5,0,0.086023256,1.1753979921340942,9.93500042,0.004759433,0,160.1999969482422,-86.9155059,40.3848221,-104.9628201,-12.52500784,-30.94176144,-0.021587223,0.013472741,6.330868351336532E-4,-44.90258705,-42.46478321,4.637707896232605,9.882197750424876,-0.26152622,-0.193287219,Drive
185,0.001652986,-3.12E-05,-2.66E-04,9.887097092775198,-0.262497243,-0.193887658,0.998954195,-0.012832783,-0.010349595,0.042646547544349746,0.019591138454027546,0.026524583,-3.056521934,-139.4444444,-2.09E-04,-7.26E-05,1.0378449676033942E-5,0,0.086023256,1.185397982597351,9.93500042,0.001719674,0,160.1999969482422,-86.9155059,40.384822,-104.9053586,-12.54452778,-30.97775139,-0.021741417,0.013365990536522519,6.212257227444461E-4,-44.84500294,-42.48430305,4.600497894287109,9.887097092775198,-0.262497243,-0.193887658,Drive
186,0.00258017,-1.89E-04,7.73131558038656E-5,9.892675177564898,-0.262429337,-0.194123546,0.9989548389194081,-0.0128132,-0.010362362,0.042634108,0.019618645,0.026486290926204144,-3.056546829,-124.75,-1.50E-04,-8.45E-05,-1.33E-05,0,0.086023256,1.195397973060608,9.93500042,0.001897601,0,160.1999969482422,-86.9155059,40.384822,-104.8607059,-12.50951377,-30.93993135,-0.021682112,0.013354129492513184,5.975035007916463E-4,-44.80120499,-42.44977722,4.6411238956451415,9.892675177564898,-0.262429337,-0.194123546,Drive
187,0.006169995,8.66668895610328E-6,5.924355925865544E-4,9.901935716277187,-0.259688047,-0.196516368,0.9989609637306732,-0.012706105,-0.010495288,0.042489249403904944,0.019897182047077754,0.026280668283839827,-3.056838457,-125.6666667,4.447911847925302E-6,8.406562626687358E-4,5.678506941055355E-4,0,0.086023256,1.2053979635238647,11.46500015258789,0.004276335,0,160.1999969482422,-86.9155058,40.384822,-104.8793721,-12.46693575,-30.97323742,-0.021527917,0.014279296,0.001178698,-44.8201149,-42.40732117,4.6068419027328495,9.901935716277187,-0.259688047,-0.196516368,Drive
188,0.021354147531453847,0.005060701,0.001280822,9.945157579,-0.245778313,-0.201278781,0.9989738157651957,-0.01218845,-0.010726946,0.042280778,0.020409142833600923,0.025261650241694404,-3.057252544,-135.625,-1.26E-04,4.1365624039244015E-4,-1.56E-04,0,0.15811388194561005,1.2153979539871216,11.263999938964844,0.003134085,0,160.1999969482422,-86.9155058,40.384822,-104.8787621,-12.40117778,-30.9044294,-0.02165839,0.013852296152956856,4.5517014533968513E-4,-44.81877304,-42.34119728,4.676381945610046,9.945157579,-0.245778313,-0.201278781,Drive
189,0.006463986,0.002382999,0.002212479,9.953529681974244,-0.246443307,-0.199908137,0.9989733695983887,-0.012069018,-0.010702177,0.042331907,0.020368361755192858,0.025021946491691673,-3.057147359,-133.2222222,-3.04E-04,3.069062322803131E-4,-3.71E-05,0,0.18027757108211517,1.2253979444503784,11.536999702453613,0.001564146,0,160.1999969482422,-86.9155058,40.384822,-104.8194707,-12.41069379,-30.96518539,-0.021836306,0.013745546,5.73781268666634E-4,-44.75935921,-42.34985935,4.614771943092347,9.953529681974244,-0.246443307,-0.199908137,Drive
190,2.977572954618014E-4,6.34047847527724E-4,0.001127201,9.951859937130827,-0.247982382,-0.200767693,0.9989706295040938,-0.012038632,-0.010650922,0.042418028944386885,0.020266315398307946,0.024958641751884267,-3.056973097,-133.625,-3.96E-05,-1.91E-04,-2.70E-04,0,0.2884441018104553,1.2353979349136353,11.630999565124512,6.030207150615752E-4,0,160.1999969482422,-86.9155058,40.384822,-104.8382585,-12.41240175,-30.8775894,-0.021685077,0.013473881059326231,3.406648034937322E-4,-44.77778091,-42.35229927,4.7027339315414425,9.951859937130827,-0.247982382,-0.200767693,Drive
191,-0.002414564,0.00101945,-4.94E-04,9.946545702739826,-0.247572931,-0.200163679,0.9989664919168046,-0.012052508,-0.010554233,0.042535443,0.020068949,0.024980545731134784,-3.056735863,-132.7777778,-1.51E-04,-3.78E-04,-2.74E-04,0,0.3138470947742462,1.2453980445861816,11.519000053405762,1.7478094378020614E-4,0,160.1999969482422,-86.9155058,40.384822,-104.8308163,-12.48596777,-30.92956127,-0.021836306,0.013365990563648419,3.365590310547031E-4,-44.77082703,-42.42659729,4.650761909484864,9.946545702739826,-0.247572931,-0.200163679,Drive
192,-0.001852554,0.001568291,-6.22E-05,9.943081309494463,-0.249309468,-0.199025347,0.9989635747613259,-0.012172272,-0.010528282,0.042576368,0.020005945785387048,0.025218489353807227,-3.056655416,-136.625,-3.26E-05,-1.41E-04,-6.08E-05,0,0.10000000149011612,1.1049180030822754,10.347000122070312,0.00982156,0,160.1999969482422,-86.9155058,40.3848222,-104.8397228,-12.46669178,-30.97116335,-0.021717695,0.013603213,5.500590388021133E-4,-44.77961098,-42.40646725,4.6086719036102295,9.943081309494463,-0.249309468,-0.199025347,Drive
193,-0.001590108,-0.002174706,-9.66E-04,9.940325514784137,-0.253877321,-0.19800317,0.9989596454842576,-0.012219864,-0.010437681,0.042677085,0.019818280543227797,0.025307888183200244,-3.056452318,-133.7777778,-3.26E-05,-3.07E-04,-7.26E-05,0,0.09433981,1.1149179935455322,10.529999732971191,0.016948735,0,160.1999969482422,-86.9155058,40.3848224,-104.7727443,-12.45070978,-30.90955343,-0.021717695,0.013437157,5.381979309338896E-4,-44.71251125,-42.39036324,4.669549913406372,9.940325514784137,-0.253877321,-0.19800317,Drive
194,-0.001305201,2.296588663915986E-4,-7.47E-04,9.938445091247559,-0.250797723,-0.196602592,0.9989567341156376,-0.012214036,-0.010388602,0.042758899,0.019718603,0.025293688136107714,-3.056287164,-136.5,2.8763196399453486E-4,-2.48E-04,2.238784489466004E-4,0,0.086023256,1.124917984008789,10.538999557495117,0.010668872855603695,0,160.1999969482422,-86.9155058,40.3848224,-104.8443583,-12.4815758,-30.94176144,-0.021397445,0.013496462816318262,8.347257197545209E-4,-44.78412506,-42.42159527,4.637707920074463,9.938445091247559,-0.250797723,-0.196602592,Drive
195,-5.60E-04,8.030594552604897E-4,-9.79E-04,9.937598719180208,-0.250683017,-0.196237592,0.9989558030100703,-0.012191125,-0.010347441,0.042797258,0.0196373,0.025245152902111268,-3.056208923,-137.1111111,1.4529862323576964E-4,-3.19E-04,-1.08E-04,0,0.10000000149011612,1.134917974472046,10.586000442504883,0.004869903,0,160.1999969482422,-86.9155058,40.3848224,-104.8319137,-12.48328372,-30.98031342,-0.021539778,0.013425296154415723,5.026146061989723E-4,-44.77168098,-42.42427917,4.599765887260437,9.937598719180208,-0.250683017,-0.196237592,Drive
196,-0.001183871,-2.90E-04,-9.90E-04,9.935452627904207,-0.250598804,-0.196353749,0.9989563915336016,-0.012156443,-0.010353741,0.042791855,0.019652972504207233,0.025176279,-3.056219291,-120.7777778,1.8088195757777657E-4,-3.90E-04,3.410067784518582E-5,0,0.086023256,1.1449179649353027,10.531000137329102,0.001725473,0,160.1999969482422,-86.9155058,40.3848224,-104.798364,-12.48035575,-30.98897541,-0.021504195,0.013354129,6.449479475228604E-4,-44.73825287,-42.42049721,4.591103907,9.935452627904207,-0.250598804,-0.196353749,Drive
197,-0.009350573,-0.011503376,-0.005992272,9.920596233849386,-0.262307374,-0.203508985,0.9989599168879314,-0.012356526,-0.01050809,0.042611019,0.019949323416334912,0.025585561954570048,-3.056588923,-86.5,-8.01E-05,4.047604845113401E-4,-3.45E-04,0,0.15811388194561005,1.1549179553985596,10.515999794006348,4.275245883036405E-4,0,160.1999969482422,-86.9155058,40.3848224,-104.82313,-12.52390975,-30.93651525,-0.02176514,0.014148823889786178,2.6539236350093506E-4,-44.76301891,-42.46392921,4.642831926345825,9.920596233849386,-0.262307374,-0.203508985,Drive
198,-0.016869397,0.003091781,0.001527578,9.888470242324384,-0.254118345,-0.199379624,0.998990662,-0.012333095,-0.010611408,0.041861982,0.020177016631492132,0.025532192,-3.058090914,-83.11111111,2.876320125951061E-4,-4.61E-04,6.034340363592633E-4,0,0.086023256,1.1649179458618164,10.489999771118164,1.810194953577593E-5,0,160.1999969482422,-86.9155058,40.3848224,-104.830694,-12.52024975,-30.91540937,-0.021397446,0.013282962749232945,0.001214281,-44.77082687,-42.45990318,4.6629619121551515,9.888470242324384,-0.254118345,-0.199379624,Drive
199,-0.003549062,0.001871871,-6.73E-04,9.883513237666158,-0.25031132,-0.202928204,0.9989939658687665,-0.012357047,-0.010770613,0.041740148,0.020496183,0.025591086,-3.058339185,-104.25,1.644588941976858E-4,8.222947844142954E-5,3.9940008327203733E-4,0,0.086023256,1.1749179363250732,10.463000297546387,0.005012611,0,160.1999969482422,-86.9155058,40.3848223,-104.7861644,-12.46571579,-30.89369345,-0.021520618,0.013826292948439144,0.001010247,-44.72593098,-42.40597919,4.686873927116394,9.883513237666158,-0.25031132,-0.202928204,Drive
200,0.001343412,-9.75E-04,-0.002550068,9.886295216754803,-0.257065815,-0.203323135,0.9989896393516688,-0.012512562,-0.010685198,0.041819931125467266,0.020310485,0.025896404191706943,-3.058180085,-107.7777778,2.2832641391608033E-4,-9.00E-04,-7.26E-05,0,0.1140175461769104,1.1849180459976196,10.420999526977539,0.003624449,0,160.1999969482422,-86.9155058,40.3848223,-104.824228,-12.47803774,-30.85953341,-0.021456751,0.012844101647909695,5.3819793488975E-4,-44.76448315,-42.41756927,4.720423946380615,9.886295216754803,-0.257065815,-0.203323135,Drive
201,0.00312258,0.004456191,0.0010601,9.892611216572883,-0.252468922,-0.195610348,0.9989830839981153,-0.012555354,-0.010477195,0.042016212403484916,0.019886050897749884,0.025968506516328135,-3.057782458,-112.25,1.8088195644753072E-4,-5.56E-04,-1.91E-04,0,0.086023256,1.1949180364608765,10.413000106811523,0.001775012,0,160.1999969482422,-86.9155058,40.3848223,-104.8765659,-12.46095769,-30.90064737,-0.021504195,0.013188073868203221,4.195868076069407E-4,-44.81633293,-42.40195324,4.678455929756165,9.892611216572883,-0.252468922,-0.195610348,Drive
202,0.005492914,-0.001252661,-9.57E-04,9.899876890830623,-0.256906101,-0.198955653,0.9989836615266152,-0.012482355,-0.010536363,0.042009423,0.020010573,0.025827451256438365,-3.057796284,-137,1.6902084462344646E-4,6.0788237657036305E-5,4.3737846743134616E-4,0,0.15811388194561005,1.2049180269241333,12.081999778747559,0.004083853,0,160.1999969482422,-86.9155057,40.3848223,-104.8313038,-12.4215517,-30.91394547,-0.021516056,0.013804851642366752,0.001048226,-44.7710709,-42.36169334,4.665035905838013,9.899876890830623,-0.256906101,-0.198955653,Drive
203,0.019843184832230354,0.001602566,-0.001517624,9.940167858050419,-0.248427908,-0.199616628,0.9989850717840842,-0.012177486,-0.010508959,0.042072450832545176,0.019979599917542588,0.025217198142872273,-3.057663952,-143,8.599306072461085E-5,-2.59E-04,-1.20E-04,0,0.2692582309246063,1.2149180173873901,12.11400032043457,0.003128818,0,160.1999969482422,-86.9155057,40.3848223,-104.8622925,-12.37458178,-31.0011754,-0.021599084,0.013484601709015161,4.907534875934129E-4,-44.80230316,-42.31435726,4.579391889572143,9.940167858050419,-0.248427908,-0.199616628,Drive
204,0.008640206,0.003695606,-7.80E-04,9.953425111122502,-0.243882058,-0.200698,0.9989875016860592,-0.012022969,-0.010550556,0.042048375004703556,0.020076220746613242,0.024911414108519415,-3.057710409,-135.875,2.2832641278583448E-4,3.4545491578382917E-4,5.085451378107288E-4,0,0.29154759645462036,1.224918007850647,11.89900016784668,0.001608293,0,160.1999969482422,-86.9155057,40.3848223,-104.8342319,-12.40825371,-30.97323732,-0.021456751,0.014089518398480508,0.001119392,-44.77460903,-42.34790737,4.606597890853882,9.953425111122502,-0.243882058,-0.200698,Drive
205,-5.91E-04,-4.43E-04,-0.00138098,9.950503654850339,-0.244245047,-0.20773708,0.998998828,-0.011805114,-0.010875616,0.041756801,0.020751308993373102,0.024497264,-3.058298224,-140.8888889,6.227087437455515E-5,-1.76E-04,1.0378428766485845E-5,0,0.09433981,1.2349179983139038,11.916000366210938,6.271757883951068E-4,0,160.1999969482422,-86.9155057,40.3848223,-104.8305719,-12.40935173,-30.8899115,-0.021622807,0.013567629,6.212257272654294E-4,-44.77021702,-42.34912743,4.691143932,9.950503654850339,-0.244245047,-0.20773708,Drive
206,-0.002523385,-6.10E-04,-0.001510045,9.945520595,-0.244747424,-0.206900753,0.9989939690793602,-0.011788588,-0.010806315,0.041896051,0.020610728400569517,0.024461368695624822,-3.058017411,-134.625,-1.51E-04,-2.00E-04,-5.71E-04,0,0.09433981,1.2449179887771606,11.930000305175781,1.8215650925412774E-4,0,160.1999969482422,-86.9155057,40.3848223,-104.8883995,-12.43082376,-30.8340354,-0.021836306,0.013543907,4.0031228105998733E-5,-44.82877701,-42.37108749,4.746531915664673,9.945520595,-0.244747424,-0.206900753,Drive
207,-0.007529749,7.542818784713745E-4,-0.001920195,9.934227211961469,-0.245990299,-0.206807828,0.9989898748768186,-0.011976695,-0.010831909,0.041933597,0.020645317,0.024840176503345805,-3.057946339,-99.88888889,1.8088197227097253E-4,-5.44E-04,-2.52E-05,0,0.086023256,1.1043280363082886,10.517999649047852,0.004952281,0,160.1999969482422,-86.9155057,40.3848224,-104.7716462,-12.52610577,-30.80560938,-0.021504195,0.013199934980027306,5.856423674928911E-4,-44.71165722,-42.46612541,4.773737936019898,9.934227211961469,-0.245990299,-0.206807828,Drive
208,-0.001412731,0.003498848,0.002661907,9.925303413,-0.24245624,-0.201743407,0.9989869737854371,-0.011947445,-0.010802803,0.042018178,0.020587502477260735,0.024781020537305336,-3.057775766,-75.875,2.5843539781187876E-4,-1.17E-04,1.9970002288643556E-4,0,0.086023256,1.1143280267715454,10.496000289916992,0.008521437,0,160.1999969482422,-86.9155057,40.3848225,-104.7754279,-12.5254958,-30.86746342,-0.021426642,0.013626592896448879,8.10547310370916E-4,-44.71519497,-42.46551506,4.711883926391602,9.925303413,-0.24245624,-0.201743407,Drive
209,0.004192973,-0.001808596,-7.70E-04,9.938057510598192,-0.246576888,-0.205669495,0.9989854033710888,-0.011872146,-0.010819561,0.042072696,0.020625925740426026,0.024633092661071748,-3.057665626,-65.88888889,2.164653054827336E-4,-1.41E-04,2.2239541155693023E-5,0,0.086023256,1.1243280172348022,10.440999984741211,0.00531727,0,160.1999969482422,-86.9155057,40.3848225,-104.7507845,-12.43070169,-30.83964746,-0.021468612,0.013603212791088136,6.330868300475469E-4,-44.69067329,-42.37047707,4.739333939552307,9.938057510598192,-0.246576888,-0.205669495,Drive
210,8.969168061191596E-4,6.142929919715067E-4,-0.001992217,9.939312055272964,-0.242305235,-0.2048564,0.9989794805211928,-0.011778147,-0.010710844,0.042267444,0.020411681221092787,0.024440123,-3.057271305,-125.875,3.854861568876551E-5,-3.54E-04,4.596177554119704E-5,0,0.086023256,1.134328007698059,10.425000190734863,0.004482223,0,160.1999969482422,-86.9155058,40.3848225,-104.7555421,-12.50682978,-30.69068544,-0.021646528,0.013389712823464454,6.568090503049779E-4,-44.69555317,-42.44648323,4.889881920814514,9.939312055272964,-0.242305235,-0.2048564,Drive
211,-6.64E-04,-3.69E-04,-0.002493653,9.937926810921974,-0.243121235,-0.205158406,0.9989756449912358,-0.011765361,-0.010701284,0.042363599,0.020391298222889022,0.024415712098328813,-3.057078324,-92,1.4826414645513862E-5,-3.31E-04,-1.48E-06,0,0.086023256,1.144327998161316,10.397000312805176,0.001345214,0,160.1999969482422,-86.9155057,40.3848225,-104.7352895,-12.46937574,-30.86087538,-0.021670251,0.013413434974776888,6.093646120506076E-4,-44.67505703,-42.40939533,4.719569921,9.937926810921974,-0.243121235,-0.205158406,Drive
212,-0.008008698,-0.002219183,-6.09E-05,9.926569615,-0.244997161,-0.202091875,0.998971872,-0.01177208,-0.010674824,0.04245737,0.020335560682618502,0.024428815806953653,-3.056890076,-96.375,1.4529863453822806E-4,-6.27E-04,6.968398901715295E-5,0,0.086023256,1.1543279886245728,10.37399959564209,0.001399241,0,160.1999969482422,-86.9155057,40.3848225,-104.8019016,-12.48133178,-30.77864738,-0.021539779,0.013116907206300682,6.805312750833923E-4,-44.74215706,-42.42098518,4.802407932281494,9.926569615,-0.244997161,-0.202091875,Drive
213,-0.019539907,-0.002977283,-0.001671419,9.885935297379127,-0.253127274,-0.205713724,0.9989695919370188,-0.012177614,-0.010817623,0.042358497,0.020589383,0.025249123012701286,-3.057099039,-49.88888889,-8.90E-06,0.001057122,2.3573955172871792E-4,0,0.1063014566898346,1.1643279790878296,10.36400032043457,8.208866347558796E-4,0,160.1999969482422,-86.9155057,40.3848225,-104.7027155,-12.47681781,-30.83720751,-0.021693973,0.014801185026547863,8.465868841350368E-4,-44.64272705,-42.41634918,4.743725953102111,9.885935297379127,-0.253127274,-0.205713724,Drive
