seconds_elapsed,magnetometer_z,magnetometer_y,magnetometer_x,orientation_qz,orientation_qy,orientation_qx,orientation_qw,orientation_roll,orientation_pitch,orientation_yaw,accelerometer_z,accelerometer_y,accelerometer_x,gyroscopeUncalibrated_z,gyroscopeUncalibrated_y,gyroscopeUncalibrated_x,microphone_dBFS,location_bearingAccuracy,location_speedAccuracy,location_verticalAccuracy,location_horizontalAccuracy,location_speed,location_bearing,location_altitude,location_longitude,location_latitude,totalAcceleration_z,totalAcceleration_y,totalAcceleration_x,accelerometerUncalibrated_z,accelerometerUncalibrated_y,accelerometerUncalibrated_x,magnetometerUncalibrated_z,magnetometerUncalibrated_y,magnetometerUncalibrated_x,gyroscope_z,gyroscope_y,gyroscope_x,class
0,3.273015947341919,-31.678682,-1.543543978,-0.99027321,-0.03874576,0.020540031,0.041705813077795834,0.03833534,-0.079658153,3.054969562424554,0.005427917,0.010947064,-0.007720033,-0.023806075,0.017154627363197505,0.009979293,-81.88888889,45,1.5,2.7176899909973145,27.815000534057617,0,0,154.79998779296875,-86.909846,40.4260851,9.877808794,0.7994513712920152,-0.38580769,9.876457371,0.8003786908437128,-0.385986056,-56.79567839,-1.717860233,-37.14716088,-0.002426421,0.003868699,0.009366324,Garage
1,2.5395519590377806,-31.22028732,-1.92503794,-0.997850111,-0.054677572,0.022199402,0.024844269196574505,0.041850398,-0.110470408,3.0941359882171335,-0.052562475,0.44259485086569417,-0.005569376,-0.020616095,0.014554610848091006,0.008187703,-44.25,45,1.5,2.7176899909973145,27.815000534057617,0,0,154.79998779296875,-86.909846,40.4260851,9.780769978,1.5409603604992617,-0.417811806,9.780769978,1.5409603604992617,-0.417811806,-57.51994884,-1.280390005,-37.50401939,7.635590602428868E-4,0.001268683,0.007576855,Garage
2,4.000867929458618,-32.27753939,-1.79388795,-0.99425473,-0.100623019,0.023725403436613314,0.02695568,0.042642488,-0.202763721,3.091721583338617,-0.025240093,0.21381040684227803,-0.011406486,0.001743583,0.012025685,-8.73E-04,-31.55555556,45,1.5,2.7176899909973145,27.815000534057617,0,0,154.79998779296875,-86.909846,40.4260851,9.710411145849136,2.2173596331216756,-0.426808125,9.710411145849136,2.2173596331216756,-0.426808125,-56.05875504,-2.33739796,-37.37323544,0.023123237521396677,-0.001260243,-0.001484122,Garage
3,3.945479919910431,-31.50308338,-2.000555942,-0.994224348,-0.10050506,0.024009936082276327,0.028663638,0.042871768034777595,-0.20261247,3.0883010938329605,0.0359318,-0.133048876,-0.026852405,-0.009050028,0.022000879950107084,0.022172865915017256,-28.875,45,1.5,2.7176899909973145,27.815000534057617,0,0,154.79998779296875,-86.909846,40.4260851,9.798117933921443,1.8743409520214043,-0.445628372,9.798117933921443,1.8743409520214043,-0.445628372,-56.11475319,-1.563551977,-37.58124531,0.012329626,0.008714952,0.021562018592218027,Garage
4,3.8299459290504454,-32.95793341,-1.219755986,-0.994303416,-0.097700533,0.027992493843714012,0.03148697,0.050548425541051385,-0.197332592,3.083293882388513,0.034505844,-0.293547256,-0.082682465,0.007804612,0.002667268,0.009694976,-21.77777778,45,1.620493769645691,2.7568302154541016,21.708999633789062,4.035489082336426,197.7525634765625,154.79998779296875,-86.9100297,40.4256483,9.785114582,1.6503027442556162,-0.577334612,9.785114582,1.6503027442556162,-0.577334612,-56.23004307,-3.018279948,-36.79837128,0.029184266,-0.01061866,0.009084129,Garage
5,3.6151039361953736,-36.73700535,-2.659599955,-0.994708674,-0.071948543,0.037991039816615654,0.059487899,0.067900477,-0.148506134,3.0271481171395016,0.039592594776338745,-0.18344062,-0.386422984,0.11612028456790355,0.017007351903249375,0.001617559,-29,45,0.4313930869102478,2.766746997833252,17.965999603271484,3.750671148300171,202.78501892089844,154.79998779296875,-86.9100586,40.425633,9.843921309535943,1.285750142000254,-1.065282323,9.843921309535943,1.285750142000254,-1.065282323,-56.44488491,-6.796497836,-38.23906937,0.13749993968646504,0.003721424,0.001006712,Garage
6,5.174263892173767,-42.71622536,-5.836723871,-0.97660961,-0.073264687,0.075736477,0.1790857019933682,0.1229322381968637,-0.172547498,2.789582125,-0.053417669,0.60765752,-0.869403052,0.38119241074450966,0.050775937185039546,0.005247059,-16.875,45,0.5375872254371643,2.776829957962036,11.302000045776367,1.509379267692566,240.68060302734375,154.79998779296875,-86.910068,40.4257212,9.657333457354204,2.3278824970560166,-2.073595709,9.657333457354204,2.3278824970560166,-2.073595709,-54.88499306,-12.77644974,-41.41704723,0.40257206559181213,0.037490009,0.004636212,Garage
7,8.875865817070007,-55.10886307,-9.759145851,-0.917726877,-0.091413556,0.1302896049416181,0.3598299660150287,0.18027850855322716,-0.265858155,2.4183489813387973,0.080394699,-0.387641818,-0.61194476,0.47480030632713466,0.068650633,0.046879561651877844,-13.44444444,45,0.5277310013771057,2.78678298,10.199000358581543,7.021587371826172,337.7697448730469,154.79998779296875,-86.9101153,40.4258455,9.695174319072834,2.2744389054844683,-2.35909082,9.695174319072834,2.2744389054844683,-2.35909082,-51.18473312,-25.16823351,-45.34056702,0.49617995799166487,0.055364705,0.046268715,Garage
8,10.856535787582397,-61.01878693,-15.32673772,-0.853466974,-0.081781009,0.14411744002539378,0.4932350997741406,0.1733835404022382,-0.285561337,2.1185756600820103,0.053078633,-0.432125118,0.13171697694521683,0.31162607942063075,0.079974003,0.010560609337587196,-13,2.7093489170074463,0.6760177612304688,2.7967913150787354,9.265000343322754,8.002707481384277,206.1209259033203,154.79998779296875,-86.9101941,40.4258041,9.631053091252891,2.426415080005683,-1.5429205,9.631053091252891,2.426415080005683,-1.5429205,-49.20320904,-31.0787674,-50.90645123,0.3330057326417703,0.066688075,0.009949762,Garage
9,12.17071969985962,-61.84472664,-18.9850297,-0.831552817,-0.087086197,0.12508014090431546,0.5340510085948462,0.12003892435900217,-0.282176614,2.0168722786949678,-0.017349975,-0.377153809,0.8506019005497683,0.1048047840956924,0.018276491030616668,-0.00712408,-18.44444444,8.038885116577148,1.318218469619751,1.8808847665786743,8.659999847,6.566976547241211,178.4908447265625,154.79998779296875,-86.9102949,40.4257539,9.572327243471609,2.423583771418599,-0.306359704,9.572327243471609,2.423583771418599,-0.306359704,-47.88890301,-31.9048295,-54.56584095,0.12618443814730182,0.004990563,-0.007734927,Garage
10,9.03861382,-62.86977081,-19.36835363,-0.84920942,-0.105628548,0.074122055,0.5115861392136917,0.018338067456232204,-0.258551085,2.059689741690182,0.055722866,-0.211381445,0.5393346150957264,-0.014601028,0.015655185082402913,0.001392198,-17.125,4.416145324707031,0.6801470518112183,1.8909080028533936,6.223999977111816,6.6201395988464355,179.99452209472656,154.79998779296875,-86.9103216,40.4256706,9.700889207784412,2.3410459097149303,0.3627275204629574,9.700889207784412,2.3410459097149303,0.3627275204629574,-51.02149696,-32.92926332,-54.94928711,0.006778625,0.002369257,7.813507770142943E-4,Garage
11,10.705377750396728,-62.61808483,-18.91853964,-0.874244498,-0.107726175,0.048321535,0.47073250517104437,-0.017467823,-0.236085829,2.151659915,0.00228324,-0.06383888,0.034925802457101134,-0.013818195,0.019593074,-0.002676163,-15.77777778,3.8626363277435303,0.6801470518112183,1.9008790254592896,6.060999870300293,7.582198143005371,180.99656677246094,154.79998779296875,-86.910336,40.4256015,9.652524610167568,2.2581537695764338,0.20351769832116598,9.652524610167568,2.2581537695764338,0.20351769832116598,-49.35461113,-32.6783095,-54.4988628,0.007561459,0.006307146,-0.003287011,Garage
12,12.674823760986328,-60.40781094,-19.40568567,-0.891231808,-0.105954434,0.046358906275149686,0.4384645047118363,-0.010571101,-0.231587525,2.2259473522889963,0.081591384,-0.436273893,-0.003029084,-0.011327362,0.023376768988950487,0.012138365403957014,-19.55555556,3.6029858589172363,0.6365532279014587,1.9108604192733765,5.676000118255615,8.245306968688965,180.0043487548828,154.79998779296875,-86.9103368,40.4255233,9.722489911776323,1.8369198957314858,0.10008728632685514,9.722489911776323,1.8369198957314858,0.10008728632685514,-47.38479912,-30.46779135,-54.98515511,0.010052292230222555,0.010090840926158775,0.011527518,Garage
13,13.810399732589723,-58.94429905,-19.62821365,-0.904493349,-0.102266222,0.041623259,0.4118513268174477,-0.009185537,-0.221084324,2.2859991059719937,0.001686744,-0.12394392,0.077604306,-0.028229446,0.027623046854696263,0.00994406,-15.25,4.253448009490967,1.1713666915893555,1.9208673238754272,5.400000095367432,8.005977630615234,180.0001220703125,154.79998779296875,-86.9103426,40.4254388,9.659926673741017,2.050471863700348,0.16813935100742913,9.659926673741017,2.050471863700348,0.16813935100742913,-46.24983322,-29.00427956,-55.20865891,-0.006849792,0.014337119111764126,0.009333212,Garage
14,14.002549781799317,-59.06349293,-19.75667969,-0.916786812,-0.101720568,0.03892928,0.38415906643404546,-0.00694336,-0.218145874,2.3472287029895966,0.021656800242303646,0.014716371,0.00595163,-0.030803307,0.015643324,-3.75E-04,-15.11111111,7.988461971282959,1.466867446899414,1.9309064149856567,5.4019999504089355,7.8647871017456055,180.97955322265625,154.79998779296875,-86.9103538,40.4253715,9.699027834586726,2.159229148938818,0.068886576,9.699027834586726,2.159229148938818,0.068886576,-46.05756107,-29.1237174,-55.3370031,-0.009423653,0.002357396,-9.86E-04,Garage
15,13.56566774368286,-58.67748505,-18.85692972,-0.925510652,-0.101960543,0.040187113775083654,0.36246319143817973,4.8821765044784537E-4,-0.219619535,2.395097005825776,0.018537750610938437,0.004915722,-0.031853355,-0.025444138,0.016187452439715762,0.003136466,-15.75,7.773044586181641,1.1661903858184814,1.9409431219100952,5.478000164031982,8.319787979125977,179.0416259765625,154.79998779296875,-86.9103598,40.4252949,9.717940932338678,2.170978362120471,-0.036632836,9.717940932338678,2.170978362120471,-0.036632836,-46.49419907,-28.73734352,-54.43676498,-0.004064484,0.002901525,0.002525619,Garage
16,13.83882571220398,-58.4687429,-19.46888165,-0.93205542,-0.101961489,0.040936595,0.34522616082024804,0.00605652,-0.220101824,2.432811885,0.019671079024527836,-0.009124096,-0.040165542,-0.017696779,0.01133774,-6.83E-04,-14.77777778,8.560279846191406,1.3346160650253296,1.9509212970733643,5.619999885559082,8.659506797790527,179.97303771972656,154.79998779296875,-86.9103557,40.4252191,9.734713943,2.1644358519211555,-0.099005941,9.734713943,2.1644358519211555,-0.099005941,-46.2215292,-28.52835741,-55.04944901,0.003682875,-0.001948188,-0.001294344,Garage
17,14.074773731231689,-59.07703491,-19.22414963,-0.936628665,-0.101378052,0.039502956117819815,0.332979918,0.006642668,-0.217937703,2.4591709132333404,-0.007091643,-0.005202866,-0.011893624,-0.014328223,0.012073129282708199,-5.65E-04,-16.5,8.559334754943848,1.3831124305725098,1.9608726501464844,5.769000053405762,8.892801284790039,180.00335693359375,154.79998779296875,-86.9103655,40.4251362,9.699608608356957,2.144433709024226,-0.076398994,9.699608608356957,2.144433709024226,-0.076398994,-45.98509308,-29.13677141,-54.80361885,0.007051431,-0.001212799,-0.001175733,Garage
18,14.527637701034546,-58.85084709,-19.29442165,-0.940528142,-0.101519383,0.036675804050512684,0.322089122,0.003677102,-0.216282685,2.4821163820988925,-0.012434348,9.609159914035242E-4,0.013995906943907437,-0.01706814,0.006806796,-0.001917052,-17.66666667,6.830657958984375,1.1713666915893555,1.9709011316299438,5.84499979,9.232230186462402,180.0026092529297,154.79998779296875,-86.9103743,40.4250529,9.695156930719765,2.133950602661059,-0.021703831,9.695156930719765,2.133950602661059,-0.021703831,-45.53259499,-28.91131552,-54.87425701,0.004311514,-0.006479132,-0.002527899,Garage
19,15.175091695785522,-58.08175896,-19.5414716,-0.944205649,-0.102191728,0.030451295,0.3115972989392512,-0.006326813,-0.213585327,2.5034016868443163,-0.022219251,-0.008106065,0.024989746,-0.022666585,0.010246518,-7.07E-04,-19,6.227113246917725,1.1799153089523315,1.9808506965637207,5.771999835968018,9.523004531860352,179.0166778564453,154.79998779296875,-86.9103683,40.4249688,9.678176687313961,2.096397362076319,0.084398767,9.678176687313961,2.096397362076319,0.084398767,-44.88465321,-28.1417395,-55.12081879,-0.001286931,-0.00303941,-0.001318066,Garage
20,15.46740367,-57.77724678,-20.23357765,-0.947975853,-0.101258673,0.025918259240180545,0.3006711576170134,-0.012017607,-0.20909331,2.5260611483194295,0.027160436,0.008762159,0.027110951,-0.028632724,0.011527518158579626,-0.00498908,-20.11111111,5.782070159912109,1.1799153089523315,1.9909112453460693,5.716000080108643,9.715686798095703,178.99989318847656,154.79998779296875,-86.9103646,40.4248773,9.696155821235434,2.058530212606041,0.1450300272915838,9.696155821235434,2.058530212606041,0.1450300272915838,-44.59270702,-27.83759344,-55.81365688,-0.00725307,-0.00175841,-0.005599927,Garage
21,15.746173725128173,-54.87157295,-19.48169167,-0.95161643,-0.097723684,0.023186572,0.2903625542677722,-0.01290024,-0.200809641,2.547989664725887,0.081512562,-0.269029602,0.005435889,-0.029723946,0.00984324,-6.12E-04,-19.44444444,5.841945648193359,1.2999999523162842,2.001002311706543,5.638000011444092,9.885337829589844,179.98452758789062,154.79998779296875,-86.9103742,40.4247847,9.774242021505115,1.7009803693271377,0.1303013874742302,9.774242021505115,1.7009803693271377,0.1303013874742302,-44.31369293,-24.93143154,-55.06128292,-0.008344292,-0.003442688,-0.001223177,Garage
22,12.089467735290528,-60.22066288,-18.84546158,-0.955816713,-0.081665019,0.019799801059862943,0.2816639962126908,-0.008275924,-0.16804098,2.5677461392671157,0.090288908,-0.17736532,-0.005733426,-0.028786919,0.030125741554690905,0.005875698,-16.875,5.090509892,1.123610258102417,2.010972499847412,5.268000126,9.889620780944824,180.0005645751953,154.79998779296875,-86.9103813,40.4247004,9.850472635435827,1.4786482346289367,0.072847511,9.850472635435827,1.4786482346289367,0.072847511,-47.97076504,-30.28039948,-54.42505299,-0.007407264,0.016839813658045332,0.005264851,Garage
23,11.256207799911499,-61.45871883,-17.91899366,-0.95981907,-0.073511434,0.024716201,0.26961919120871103,0.007873408,-0.155082473,2.5945151081452003,0.080803917,-0.161416213,0.12363085526829728,-0.047352409,0.020980254,-0.002654836,-24.88888889,4.911456585,1.0875661373138428,2.021002769470215,5.001999855041504,9.478160858154297,180.98837280273438,154.79998779296875,-86.9103896,40.424617,9.866481827,1.3655873635440197,0.048852495,9.866481827,1.3655873635440197,0.048852495,-48.80390289,-31.51845531,-53.49919495,-0.025972756,0.007694326,-0.003265683,Garage
24,12.546113748550415,-61.38588505,-16.95580367,-0.965797664,-0.068804644,0.016112777196521898,0.2493970667563596,-0.00324252,-0.141403037,2.6359433294499963,-0.006035129,-0.050370719,0.014066791,-0.062033614,0.018122296392108377,0.003420448,-20.875,4.869008541107178,1.1151680946350098,2.030947208404541,4.7779998779296875,9.107898712158203,181.9878387451172,154.79998779296875,-86.910387,40.4245363,9.841351416504498,1.3514685491913732,0.045980527,9.841351416504498,1.3514685491913732,0.045980527,-47.51326504,-31.4456214,-52.53637112,-0.040653961,0.004836368,0.002809601,Garage
25,14.978183660507202,-61.0156147,-14.79213372,-0.970158352,-0.054323048,0.019567531651084862,0.23533592944585005,0.012438358915336793,-0.114861502,2.666303965651873,0.050760130280429874,-0.283747728,-0.201735976,-0.019369196,-9.50E-04,-8.50E-04,-25.77777778,4.859023571014404,1.1543396711349487,2.0409345626831055,4.5370001792907715,8.846074104309082,183.97805786132812,154.79998779296875,-86.9103922,40.424457,9.972814346980122,0.8608382792727461,-0.325261261,9.972814346980122,0.8608382792727461,-0.325261261,-45.08192711,-31.07535135,-50.3723349,0.002010458,-0.014236299,-0.001460399,Garage
26,14.995629720687866,-60.55238091,-13.86773978,-0.970627966,-0.032273754,0.029887949,0.23637547582677268,0.042942363,-0.076910084,2.6654412839019184,0.041357984820615895,-0.15644239,-0.183342582,0.029783251740544744,0.019747268744219927,2.2980900485864252E-4,-34.125,4.8528337478637695,1.1067520380020142,2.0509557723999023,4.4770002365112305,7.928892612457275,183.99436950683594,154.79998779296875,-86.9104078,40.4243869,10.013741346505972,0.6110066848878677,-0.612306635,10.013741346505972,0.6110066848878677,-0.612306635,-45.06460323,-30.61236145,-49.44769707,0.051162906,0.006461341,-3.81E-04,Garage
27,14.527515687942504,-60.97608669,-13.78490174,-0.965327627,-0.018880331,0.032615040257139113,0.25814729263481584,0.053358617464749555,-0.053262006,2.620442135820111,0.009257659,-0.106389856,0.17858386401412557,0.022429362436738407,0.011456351502328316,-0.001454469,-29.55555556,5.053704261779785,1.0875661373138428,2.060901641845703,4.2230000495910645,6.724206447601318,180.0289764404297,154.79998779296875,-86.9104144,40.4243235,10.02164068499815,0.4282775033012177,-0.35326077,10.02164068499815,0.4282775033012177,-0.35326077,-45.53271702,-31.03570139,-49.36534691,0.043809017,-0.001829576,-0.002065316,Garage
28,14.67940571784973,-60.51407276,-14.47322573,-0.96504741,-0.015678139,0.010314625631384914,0.26136402713442314,0.011716786100293478,-0.035667678,2.612846779591829,0.041817211,-0.089391206,0.081799894,-0.024766002,4.6110078715041135E-4,6.686700903584512E-4,-27.77777778,5.290628910064697,1.0791200399398804,2.0709331035614014,4.150000095367432,5.298370361328125,178.01905822753906,154.79998779296875,-86.9104095,40.4242734,10.090753777513227,0.26704946024686965,-0.03125189,10.090753777513227,0.26704946024686965,-0.03125189,-45.38046104,-30.57417542,-50.05245106,-0.003386347,-0.012824827,5.782295009392558E-5,Garage
29,14.643293733596801,-60.73867504,-14.44028567,-0.966324092,-0.012264611,0.001637704,0.2570222196648422,-0.003142212,-0.024550557,2.621633849097687,-0.002785599,-0.010800162,-0.011422019,-0.02357989,0.005727434,-0.001229108,-30.125,5.636640548706055,1.0955363512039185,2.0809812545776367,4.044000148773193,3.7025880813598633,178.01560974121094,154.79998779296875,-86.9104047,40.4242383,10.066085056193824,0.23630575491997044,0.021372785109086235,10.066085056193824,0.23630575491997044,0.021372785109086235,-45.4166951,-30.79877737,-50.02097515,-0.002200236,-0.007558494,-0.001839955,Garage
30,13.569693717956543,-58.87890694,-14.94963575,-0.967665184,-0.016217014,5.023031517033325E-4,0.25167217635764527,-0.007180148,-0.031644584,2.632589360842338,-0.049488077,0.16755729240293687,-0.007798293,-0.022237189,0.010725068329170777,0.001233442,-30.44444444,6.0355424880981445,1.131591797,2.090952157974243,3.9769999980926514,2.3105454444885254,178.02520751953125,154.79998779296875,-86.9104075,40.4242158,9.996588725488163,0.48814453206305364,0.062820306,9.996588725488163,0.48814453206305364,0.062820306,-46.49005112,-28.93876543,-50.52849491,-8.58E-04,-0.00256086,6.225942740386997E-4,Garage
31,12.615897769927978,-61.13310066,-15.32576167,-0.968605352,-0.043083015,0.007139948,0.24458497401001383,-0.007239113,-0.087070245,2.6465935938566636,-0.079743209,0.37627845134549925,0.002112987,-0.02133814,0.013069462736399428,0.001605698,-32.5,6.472782135009766,1.1122050285339355,2.1008763313293457,3.9639999866485596,0.7627662420272827,178.08534240722656,154.79998779296875,-86.9104107,40.4242092,9.831283569335938,1.2410821885738559,0.073858072,9.831283569335938,1.2410821885738559,0.073858072,-47.44457897,-31.1932033,-50.905597,4.151389138429489E-5,-2.16E-04,9.948507231633062E-4,Garage
32,12.77608380317688,-61.55802685,-15.39298371,-0.968226991,-0.075533669,0.014436651518550312,0.23785729648418796,-0.008051779,-0.153747751,2.6591872312490223,-0.057385834,0.2665603334463916,0.002369981,-0.021112778,0.012583157,9.889201898561808E-4,-31.55555556,45,1.1301770210266113,2.1109018325805664,3.9189999103546143,0.7404879331588745,178.0269317626953,154.79998779296875,-86.9104096,40.4242122,9.719459746647807,1.7816219792782682,0.08104525,9.719459746647807,1.7816219792782682,0.08104525,-47.28402706,-31.61788542,-50.97220905,2.668750160418957E-4,-7.03E-04,3.780729020945728E-4,Garage
33,12.762175741195678,-61.55546471,-15.51473969,-0.968547121,-0.086461886,0.016481187990278874,0.23273598901855136,-0.008447645,-0.176065046,2.6692016309904822,0.012016833,0.047360344,-0.002696882,-0.021207667,0.012974573877974621,7.516979477232666E-4,-32.75,45,1.165032148361206,1.1728864908218384,3.9000000953674316,0.33464568853378296,162.7219238,154.5,-86.9104075,40.4242131,9.764505191914086,1.782449596136519,0.079607815,9.764505191914086,1.782449596136519,0.079607815,-47.29793533,-31.61581133,-51.0943309,1.719861214492217E-4,-3.11E-04,1.4085067465485445E-4,Garage
34,12.765469770431519,-61.60097084,-15.7688657,-0.969432563,-0.088416893,0.016496133818788436,0.22827433657298968,-0.00851999,-0.179929414,2.678305477771944,0.005972344,0.007997859,-8.82E-04,-0.021183945,0.012879685,8.94031279440065E-4,-45.77777778,45,1.475974202156067,1.1827841997146606,3.9119999408721924,0.14339114725589752,175.90162658691406,154.5,-86.9104081,40.4242129,9.783843434773958,1.7868403104635386,0.082520745,9.783843434773958,1.7868403104635386,0.082520745,-47.29464108,-31.65973137,-51.34931091,1.957083450973902E-4,-4.06E-04,2.8318400919726753E-4,Garage
35,12.776327810287476,-61.65184464,-15.72494575,-0.970369841,-0.088894544,0.01611361,0.22409592554407212,-0.008711321,-0.180725641,2.6868838824114754,-0.012563159,1.8922449315635903E-4,-0.00335118,-0.021207667,0.012666184938901547,8.347257174940292E-4,-44.11111111,45,0.15556348860263824,1.1927409172058105,4.044000148773193,0.11005299538373947,70.26664733886719,154.5,-86.9104061,40.4242143,9.755102324254304,1.7839393048610501,0.082035485,9.755102324254304,1.7839393048610501,0.082035485,-47.28317291,-31.71206936,-51.30514706,1.719861214492217E-4,-6.20E-04,2.2387844838147748E-4,Garage
36,12.776571807861329,-61.6423288,-15.76105772,-0.971269696,-0.089122399,0.015705639,0.22010078418602064,-0.008867944,-0.181024769,2.695092472057898,-0.011868125,-0.002668892,-0.003117052,-0.021172084,0.012476407154237182,8.94031279440065E-4,-43.75,45,0.1063014566898346,1.2027121782302856,4.195000171661377,0.10345747321844101,20.78356361,154.5,-86.9104062,40.4242155,9.729289443747511,1.7796908790625414,0.082491399,9.729289443747511,1.7796908790625414,0.082491399,-47.283661,-31.70243135,-51.34003887,2.0756945692147446E-4,-8.10E-04,2.8318400919726753E-4,Garage
37,12.83378975868225,-61.77518665,-15.76483974,-0.972114899,-0.089336092,0.015057657442342203,0.21629530406342104,-0.009526569,-0.181193682,2.7028604401991916,0.001704785,1.896906357545119E-4,-0.004714888,-0.021238689,0.012122968811756717,9.280179376499011E-4,-45,0,0.15620499849319458,1.2127138376235962,4.21999979,0.031630471,0,154.5,-86.9104062,40.4242154,9.733029745157483,1.784476516316238,0.088139506,9.733029745157483,1.784476516316238,0.088139506,-47.22619896,-31.83480129,-51.34443104,1.4096475206315517E-4,-0.001162959,3.171706507251096E-4,Garage
38,12.883321714401244,-61.83923706,-15.79131368,-0.972936615,-0.089288944,0.014843385214510472,0.2126037805404478,-0.009234089,-0.181044049,2.710482666793379,0.018189921,-0.002255447,-0.003012571,-0.021207667,0.012689907176112666,0.001071948,-46.875,0,0.1063014566898346,1.0380685329437256,4.265999794006348,0.061543457210063934,0,154.5,-86.9104063,40.4242143,9.764557468080984,1.7818455834990565,0.086931479,9.764557468080984,1.7818455834990565,0.086931479,-47.17666706,-31.89933939,-51.37163696,1.719861214492217E-4,-5.96E-04,4.6110067864681045E-4,Garage
39,12.855261735916137,-61.82264484,-15.71933371,-0.973705071,-0.089259266,0.014511965142870412,0.2090922714147753,-0.009216599,-0.180877955,2.7177038424223374,0.010481602937272452,-3.52E-04,-0.004639218,-0.02112464,0.012452684948672948,0.001036365,-44.88888889,0,0.092195444,1.0480172634124756,4.283999919891357,0.091407567,0,154.5,-86.910407,40.4242134,9.787867194240533,1.7877492314403496,0.085406926,9.787867194240533,1.7877492314403496,0.085406926,-47.2049712,-31.88213728,-51.29941296,2.5501390421781147E-4,-8.33E-04,4.255173403489431E-4,Garage
40,12.800605792999267,-61.86168488,-15.69139573,-0.974420924,-0.089320538,0.014197807,0.2057259409751707,-0.009232603,-0.180898513,2.7246138123632635,-0.011996177,-0.002508699,-0.002548714,-0.021183945,0.012689907185154633,8.940312997844902E-4,-45,0,0.086023256,1.058039903640747,4.188000202178955,0.08864259,0,154.5,-86.910407,40.4242126,9.763721132741392,1.7854928900894609,0.087628418,9.763721132741392,1.7854928900894609,0.087628418,-47.25950516,-31.9214213,-51.27110893,1.957083450973902E-4,-5.96E-04,2.8318400015530076E-4,Garage
41,12.815123748779296,-61.76713493,-15.6769997,-0.975087121,-0.08947709,0.013879045,0.20249801338876336,-0.009323878,-0.181105436,2.7312236248868182,-0.013514621,-0.003283967,-0.004172304,-0.02123139,0.012535712745004488,0.001071948,-45.11111111,0,0.1063014566898346,1.0679636001586914,4.139999866485596,0.057598975,0,154.5,-86.9104068,40.4242123,9.733064954097454,1.7806540532754018,0.086831853,9.733064954097454,1.7806540532754018,0.086831853,-47.24498695,-31.8274814,-51.25732311,1.482638978010532E-4,-7.50E-04,4.6110067412582703E-4,Garage
42,12.964207763671874,-61.92829666,-15.71469768,-0.975715436,-0.089589436,0.013518783643624736,0.1994230609785006,-0.00950721,-0.181209806,2.737509359433813,5.119286694572967E-5,-0.002668097,-0.003203698,-0.02112464,0.012393379375989576,9.889201842049518E-4,-45.75,0,0.14866068959236145,1.0780024528503418,3.9769999980926514,0.07599628,0,154.5,-86.9104073,40.4242115,9.736049781725244,1.7825657464925526,0.088482168,9.736049781725244,1.7825657464925526,0.088482168,-47.09578106,-31.98839933,-51.29538712,2.5501390421781147E-4,-8.93E-04,3.7807289361772894E-4,Garage
43,12.84306176185608,-61.86217289,-15.64308366,-0.976323182,-0.089586295,0.013271341154586922,0.1964445656653747,-0.009437907,-0.181133445,2.7436208285174324,0.017395926910696677,-0.001006632,-0.005435686,-0.021160223,0.012535712754046455,8.465868451415552E-4,-43,0,0.14866068959236145,1.0372999906539917,3.9639999866485596,0.054242615,0,154.5,-86.9104077,40.4242113,9.767534024507096,1.7856322827848417,0.08695471,9.767534024507096,1.7856322827848417,0.08695471,-47.2171714,-31.92203119,-51.22340706,2.194305687455587E-4,-7.50E-04,2.3573955229384084E-4,Garage
44,12.797921752929687,-61.8071508,-15.63417768,-0.976905712,-0.089451411,0.013025421043405833,0.19360613851871306,-0.009339885,-0.180798313,2.7494502785136397,0.011248653374829339,1.1357867602005745E-4,-0.003789844,-0.02123139,0.012666184961506463,9.889201853351974E-4,-42.5,0,0.14866068959236145,1.0473672151565552,3.9000000953674316,0.032493688,0,154.5,-86.9104081,40.4242116,9.790120606283539,1.7856613223992506,0.087872347,9.790120606283539,1.7856613223992506,0.087872347,-47.26157909,-31.86676535,-51.2146228,1.482638978010532E-4,-6.20E-04,3.780728970084665E-4,Garage
45,12.854895706176757,-61.78079891,-15.7475157,-0.977436326,-0.08954798,0.012795966485730158,0.19087959911960822,-0.00932352,-0.180925411,2.755029417001284,-0.01390592,-0.00229539,-0.003377439,-0.021085977,0.012886527889909653,9.16270868821392E-4,-42.22222222,0,0.14866068959236145,1.0573456287384033,3.944000005722046,0.017074255272746086,0,154.5,-86.9104081,40.4242114,9.762678618569977,1.7866805953886902,0.087436759,9.762678618569977,1.7866805953886902,0.087436759,-47.20570316,-31.8407794,-51.32771698,2.9367656679823995E-4,-3.99E-04,3.0542358637411293E-4,Garage
46,12.900035762786866,-61.57522877,-16.05776167,-0.977926161,-0.089635345,0.012645923,0.18832285311615582,-0.009177332,-0.181064343,2.7602699520518477,-0.013622839,-0.004975094,-0.002759833,-0.021207667,0.012796657155403525,9.058924036968536E-4,-47.44444444,0,0.1063014566898346,1.067332148551941,4.026000022888184,0.009063751,0,154.5,-86.9104079,40.4242116,9.735074053,1.7797547717696254,0.086661415,9.735074053,1.7797547717696254,0.086661415,-47.15995308,-31.63520933,-51.63686485,1.719861214492217E-4,-4.89E-04,2.950451255423351E-4,Garage
47,12.963963785171508,-61.78311699,-15.95589182,-0.978380785,-0.089679157,0.012505506201493509,0.1859349314738246,-0.009026473,-0.1811199,2.765165060469248,1.5218049577138957E-4,-7.11E-04,-0.003526096,-0.021089056,0.012678046041683665,8.584479518795331E-4,-48.375,0,0.14866068959236145,1.077299714,4.040999889373779,0.009111519,0,154.5,-86.9104078,40.4242116,9.736607375654202,1.7823334330493965,0.084312152,9.736607375654202,1.7823334330493965,0.084312152,-47.09614697,-31.84297535,-51.53633705,2.905972396900642E-4,-6.08E-04,2.4760067372501474E-4,Garage
48,12.898327722549439,-61.70930679,-15.8825697,-0.978819657,-0.089722048,0.012177952709924248,0.18361172542988674,-0.009259581,-0.181103898,2.769892060640946,0.016246675,0.003118192,-0.004029358,-0.021089056,0.012428962743108712,8.940312856564171E-4,-45.77777778,0,0.1063014566898346,1.0370694398880005,4.078000068664551,0.018525137,0,154.5,-86.9104075,40.4242115,9.763222538507902,1.7879245590705137,0.085480138,9.763222538507902,1.7879245590705137,0.085480138,-47.16129509,-31.76977535,-51.46289314,2.905972396900642E-4,-8.57E-04,2.831840080670217E-4,Garage
49,12.860995740890504,-61.68942078,-15.86329371,-0.979239823,-0.089709821,0.011955814616917406,0.1813784645309726,-0.009279426,-0.181018949,2.7744542719091028,0.012592686032785953,-7.75E-04,-0.003602777,-0.021148362,0.012595018299603924,9.533368396907321E-4,-46.25,0,0.15556348860263824,1.047144889831543,4.085000038146973,0.03707898,0,154.5,-86.9104069,40.4242115,9.789792431211009,1.7876098468465713,0.088078523,9.789792431211009,1.7876098468465713,0.088078523,-47.1991151,-31.7494014,-51.44459309,2.3129168056964296E-4,-6.91E-04,3.4248956492695127E-4,Garage
50,12.859775743484498,-61.67746479,-15.8414557,-0.979635468,-0.089740199,0.011771841,0.17922632685564097,-0.009254734,-0.181032291,2.778850907260932,-0.008950733,-0.005048592,-0.003095852,-0.02112464,0.012689907203238565,0.001048226,-43.55555556,0,0.1063014566898346,1.0570214986801147,4.061999797821045,0.037030589,0,154.5,-86.9104065,40.4242116,9.772011784673895,1.7868896780662167,0.087419336,9.772011784673895,1.7868896780662167,0.087419336,-47.20021297,-31.7373234,-51.42190086,2.5501390421781147E-4,-5.96E-04,4.373784600847482E-4,Garage
51,12.859165716171265,-61.69478863,-15.78826372,-0.980010297,-0.089787772,0.011597284830166298,0.1771527903461919,-0.009232462,-0.181082964,2.7830843531969682,-0.01637818,-0.003482639,-0.005262437,-0.02112464,0.012500129414053218,0.001036365,-42,0,0.1063014566898346,1.0670698881149292,3.9830000400543213,0.036099322,0,154.5,-86.9104061,40.4242117,9.734870781018897,1.7808959981770192,0.084701275,9.734870781018897,1.7808959981770192,0.084701275,-47.20094501,-31.75513536,-51.36870888,2.5501390421781147E-4,-7.86E-04,4.2551734826066394E-4,Garage
52,12.871487770080567,-61.73773281,-15.86853975,-0.980367143,-0.089840704,0.011422216883287407,0.1751516621846419,-0.00922665,-0.181144086,2.7871667467630825,-0.001039019,-0.003032162,-0.003188987,-0.021262183,0.012604598439513491,9.280179303739435E-4,-42.66666667,0,0.1063014566898346,1.0770379304885864,3.953000068664551,0.026820385828614235,0,154.5,-86.9104059,40.4242118,9.738027331898513,1.7812183343091057,0.086286811,9.738027331898513,1.7812183343091057,0.086286811,-47.18874481,-31.79698143,-51.44849686,1.1747062671929598E-4,-6.81E-04,3.17170654642933E-4,Garage
53,12.971283693313598,-61.81142075,-15.67834173,-0.980712409,-0.089849133,0.011228546,0.17321633901989575,-0.009254241,-0.181110792,2.791112383592476,0.012828364,0.002203947,-0.00287563,-0.021243251,0.012595018299603924,8.584479518795331E-4,-42.25,0,0.14866068959236145,1.0536390542984009,3.9539999961853027,0.020104998722672462,0,154.5,-86.9104057,40.4242118,9.755799303,1.7863553530961565,0.087242198,9.755799303,1.7863553530961565,0.087242198,-47.08894924,-31.87201136,-51.25793282,1.3640278597696893E-4,-6.91E-04,2.4760067598550645E-4,Garage
54,12.912967739105225,-61.51142273,-15.62331972,-0.981051852,-0.089779081,0.0110497,0.17133177831334975,-0.009234255,-0.180927731,2.794960558993145,0.016940366874620753,-9.02E-04,-0.004804465,-0.02112464,0.012654323845161396,0.001036365,-41.55555556,0,0.1063014566898346,1.0636640787124634,3.953000068664551,0.011372684501111507,0,154.5,-86.9104057,40.4242119,9.791023708084255,1.787101658802588,0.085404022,9.791023708084255,1.787101658802588,0.085404022,-47.14677692,-31.57152534,-51.20315491,2.5501390421781147E-4,-6.32E-04,4.25517347695541E-4,Garage
55,12.873073768615722,-61.57608265,-15.81986175,-0.981356868,-0.089813675,0.010897109149367486,0.16956765356573086,-0.009221767,-0.180960227,2.798556897246722,-0.010487344,-0.002769956,-0.003432596,-0.021112778,0.012571296075955756,9.296146250845304E-4,-41.25,0,0.1063014566898346,1.0735958814620972,3.9590001106262207,0.004639909,0,154.5,-86.9104057,40.4242119,9.771764940428502,1.7870493942094081,0.086725301,9.771764940428502,1.7870493942094081,0.086725301,-47.18618305,-31.63642933,-51.40067284,2.668750160418957E-4,-7.15E-04,3.187673429741515E-4,Garage
56,12.86294776916504,-61.6079248,-15.77264774,-0.981644229,-0.089865332,0.010722213,0.16787975968666446,-0.009273992,-0.181018661,2.801990351630646,-0.015317732,-0.004442158,-0.004517514,-0.021195806,0.012511990539440252,7.991423927591119E-4,-40.22222222,0,0.1063014566898346,1.0835647583007812,3.9649999141693115,0.01056613,0,154.5,-86.9104055,40.4242119,9.738791026,1.7802830510414565,0.08561531,9.738791026,1.7802830510414565,0.08561531,-47.19716286,-31.66802746,-51.35358101,1.8384723327330595E-4,-7.74E-04,1.8829511460459347E-4,Garage
57,12.842451753616333,-61.63683853,-15.91819373,-0.981918607,-0.089875107,0.010644158013888355,0.1662672298047149,-0.009132528,-0.181026782,2.805288039364861,-0.003251242,-0.001658695,-0.003464019,-0.021266973,0.012772934954360273,8.347257225801354E-4,-39.11111111,0,0.1345362365245819,1.0936055183410645,3.9809999465942383,0.005041381,0,154.5,-86.9104055,40.4242119,9.736566700981658,1.7815261581569042,0.085993516,9.736566700981658,1.7815261581569042,0.085993516,-47.21765919,-31.69742945,-51.49827278,1.1268056232880041E-4,-5.13E-04,2.2387844442561702E-4,Garage
58,12.92126374,-61.6364727,-15.86646566,-0.98217491,-0.089944523,0.010543187582883442,0.1647151034433865,-0.009068449,-0.181144836,2.808452569165276,0.013970838009732442,1.413636994593352E-4,-0.002189372,-0.021136501,0.012713629454012635,0.001036365,-40.875,0,0.1063014566898346,1.0691787004470825,3.996000051498413,0.011390580795705318,0,154.5,-86.9104053,40.4242119,9.757913293190374,1.7863059911913084,0.085142669,9.757913293190374,1.7863059911913084,0.085142669,-47.13909088,-31.69657536,-51.44581306,2.4315279239372722E-4,-5.72E-04,4.255173510862786E-4,Garage
59,12.907965784072877,-61.67807476,-15.86329373,-0.982432142,-0.089851298,0.010414158654155082,0.16323351686440626,-0.00901844,-0.180931052,2.811477887977674,0.016568943134789328,0.001955331,-0.002842033,-0.021207667,0.012666184979590397,9.533368447768385E-4,-40.33333333,0,0.1063014566898346,1.079202414,4.006999969482422,0.005332972,0,154.5,-86.9104053,40.4242119,9.790715912013377,1.7892331313161016,0.085616007,9.790715912013377,1.7892331313161016,0.085616007,-47.15129105,-31.73756737,-51.44398319,9.192361776689881E-5,-2.99E-04,1.8236459712091003E-4,Garage
60,12.856359729766845,-61.6546508,-15.8531677,-0.982677679,-0.089798024,0.010333327719798455,0.16178360423789576,-0.008892111,-0.18081219,2.8144430953722734,-0.0094126,-0.002224466,-0.001847083,-0.021097724,0.012440139562106477,9.51512059635626E-4,-41.5,0,0.1063014566898346,1.0891224145889282,4.0320000648498535,0.006754408,0,154.5,-86.9104052,40.4242119,9.772894618580642,1.7854493370333921,0.085421446,9.772894618580642,1.7854493370333921,0.085421446,-47.20375118,-31.71511934,-51.43349094,1.2921769330904892E-4,-2.35E-04,3.524122551495496E-5,Garage
61,12.8972297,-61.70772091,-15.83511172,-0.982901357,-0.089852722,0.010219288158040601,0.16039577951130357,-0.008879882,-0.180895973,2.8172668369070997,-0.016574517,-0.001863458,3.203782207757524E-5,-0.02123139,0.012666184961506463,8.821701760928246E-4,-41.11111111,0,0.1345362365245819,1.0991096496582031,4.072000026702881,0.007812141,0,154.5,-86.9104051,40.4242119,9.739026254820592,1.7824292669018496,0.086612049,9.739026254820592,1.7824292669018496,0.086612049,-47.16239307,-31.76794538,-51.414459,-4.45E-06,-8.90E-06,-3.41E-05,Garage
62,12.849771728515625,-61.68527279,-15.83279366,-0.9831154,-0.089910939,0.010177054252584004,0.15904843199600294,-0.008732728,-0.181009819,2.8200193932912883,-0.002992306,-3.78E-04,5.897506709816386E-4,-0.021219528,0.012630601630555195,7.872812775442901E-4,-40.25,0,0.1063014566898346,1.1090916395187378,4.085999965667725,0.008252408,0,154.5,-86.910405,40.4242119,9.736075892,1.7820343369419136,0.085584064,9.736075892,1.7820343369419136,0.085584064,-47.20997295,-31.74488724,-51.41409275,7.4131971505443445E-6,-4.45E-05,-1.29E-04,Garage
63,12.882711763381957,-61.64476871,-15.87878769,-0.98332055,-0.089918359,0.010016049629131567,0.15778124925580997,-0.008821084,-0.180984267,2.822589411318881,0.011892522423012742,0.00262481,-6.85E-04,-0.021243251,0.012571296084997723,9.058923969153785E-4,-41.22222222,0,0.1063014566898346,1.0349000692367554,5.105999946594238,0.008362332,0,154.5,-86.9104049,40.4242119,9.755819779175978,1.7854397010344725,0.084827288,9.755819779175978,1.7854397010344725,0.084827288,-47.17739922,-31.70535933,-51.459599,-1.63E-05,-1.04E-04,-1.04E-05,Garage
64,12.865143709182739,-61.67648888,-15.85536371,-0.98352017,-0.089880077,0.009890202,0.1565621081486489,-0.008833439,-0.180879322,2.825069658964583,0.015925861099391307,0.001524637,-7.34E-04,-0.021148362,0.012547573834223655,9.296146183030553E-4,-38.875,0,0.1063014566898346,1.044921875,6.138999938964844,0.008420226,0,154.5,-86.9104048,40.4242119,9.791000477318624,1.7893550963077731,0.086121288,9.791000477318624,1.7893550963077731,0.086121288,-47.19447914,-31.7362254,-51.43568699,7.857986979041864E-5,-1.28E-04,1.3343785839715919E-5,Garage
65,12.87734375,-61.66404484,-15.76862175,-0.983713373,-0.089847644,0.009786042,0.15536894135683485,-0.008809439,-0.18079287,2.8274995701984293,-0.00608584,3.7555092746771655E-4,2.358457778842704E-4,-0.021148362,0.012535712772130388,9.770590627737777E-4,-37,0,0.1063014566898346,1.054870367050171,7.169000148773193,0.008466633,0,154.5,-86.9104047,40.4242119,9.777625028369496,1.790301763895646,0.085337232,9.777625028369496,1.790301763895646,0.085337232,-47.18240108,-31.72378134,-51.34882301,7.857986979041864E-5,-1.39E-04,6.0788237091913385E-5,Garage
66,12.82390772819519,-61.67270683,-15.78631169,-0.983889944,-0.089928505,0.009679438,0.15420646271080646,-0.00883238,-0.180930328,2.8298581618707157,-0.016471992,-0.002189708,-7.87E-04,-0.021219528,0.012595018,0.001012642,-38.25,0,0.1063014566898346,1.0649175643920898,8.975000381469727,0.004658051,0,154.5,-86.9104047,40.4242119,9.743158516374606,1.7805910955355004,0.08651622,9.743158516374606,1.7805910955355004,0.08651622,-47.23595905,-31.73256529,-51.36614681,7.413197715667266E-6,-8.01E-05,9.637156973855155E-5,Garage
67,12.842939710617065,-61.67624485,-15.88696168,-0.984057787,-0.08997938,0.009585739,0.15310777279619986,-0.008831643,-0.181012007,2.8320898642906775,-0.00491399,-0.002957557,0.001272676,-0.0211917,0.012663333739440601,9.280179354111449E-4,-40,0,0.1063014566898346,1.0748838186264038,10.17199993133545,0.005757275,0,154.5,-86.9104046,40.4242119,9.735890037,1.7809192335721358,0.086954711,9.735890037,1.7809192335721358,0.086954711,-47.21729298,-31.73610334,-51.4663089,3.524119249330117E-5,-1.17E-05,1.1747097932339575E-5,Garage
68,12.862093753814698,-61.65745686,-15.8930617,-0.984221317,-0.089978702,0.009483656,0.1520598391884739,-0.008840775,-0.18098858,2.8342190946190104,0.010704484958093143,0.003481615,-3.35E-04,-0.021255112,0.012737351668618837,9.177535059138481E-4,-39.33333333,0,0.1063014566898346,1.0645794868469238,10.170000076293945,0.003333668,0,154.5,-86.9104046,40.4242119,9.753708450539598,1.7864018204142746,0.085746684,9.753708450539598,1.7864018204142746,0.085746684,-47.19777302,-31.71731539,-51.472043,-2.82E-05,6.227084837890077E-5,1.482677406369193E-6,Garage
69,12.877221765518188,-61.65013687,-15.84767771,-0.984383764,-0.089913582,0.009399988,0.1510486468238738,-0.008799876,-0.180842773,2.836280156107782,0.0145542,0.00164024,-6.23E-04,-0.021112778,0.012583157192300824,9.651979588614144E-4,-39.5,0,0.1063014566898346,1.0745222568511963,10.170000076293945,0.005257927,0,154.5,-86.9104045,40.4242119,9.787983329550734,1.7886552509752291,0.085325616,9.787983329550734,1.7886552509752291,0.085325616,-47.182645,-31.71036137,-51.42812294,1.1416320300217971E-4,-9.19E-05,4.8927123572460364E-5,Garage
70,12.849527759552002,-61.70991661,-15.79826775,-0.984537343,-0.089889783,0.009334034,0.15006274259784846,-0.008741363,-0.18078423,2.838289508541811,-0.003898297,-0.001275096,1.5134990070630046E-4,-0.021100917,0.012606879434032926,8.703090614431258E-4,-37.33333333,0,0.1063014566898346,1.0845547914505005,10.163999557495117,0.007003491,0,154.5,-86.9104044,40.4242119,9.780964555092229,1.7872410491832251,0.085627623,9.780964555092229,1.7872410491832251,0.085627623,-47.210583,-31.77075148,-51.37859089,1.2602431595650981E-4,-6.82E-05,-4.60E-05,Garage
71,12.838303756713866,-61.6326907,-15.80290374,-0.984678924,-0.089947975,0.009343723,0.14909523002152303,-0.008560303,-0.180911178,2.8402690169880693,-0.016719559,-0.001110107,-0.002013382,-0.021100917,0.012630601621513228,9.177535087394628E-4,-39.875,0,0.086023256,1.0945392847061157,10.170000076293945,0.007948723,0,154.5,-86.9104043,40.4242119,9.742449292769798,1.7840103335105455,0.081094255,9.742449292769798,1.7840103335105455,0.081094255,-47.22131905,-31.69279343,-51.38310513,1.260243153913869E-4,-4.45E-05,1.4826768412462716E-6,Garage
72,12.902109727859497,-61.66099491,-15.87427369,-0.984816235,-0.089950598,0.009247443,0.14819000820511752,-0.008585686,-0.180895362,2.842105462713149,-0.005861421,-3.32E-04,-7.56E-04,-0.021136501,0.012476407181363083,0.001024504,-40.22222222,0,0.086023256,1.1045242547988892,10.170000076293945,0.00453074,0,154.5,-86.9104043,40.4242119,9.733915412310258,1.7790839648941188,0.083833006,9.733915412310258,1.7790839648941188,0.083833006,-47.15787922,-31.72085342,-51.45435287,9.044098274474873E-5,-1.99E-04,1.082326815626358E-4,Garage
73,12.913577766418458,-61.63610687,-15.81766571,-0.984948766,-0.089942491,0.00916037,0.14731697622433448,-0.008595429,-0.180860853,2.8438780492949256,0.011323901056085975,2.0509784661450434E-4,4.149702495162927E-4,-0.021314417,0.012678046073330548,7.042534930803316E-4,-39.875,0,0.086023256,1.033739686012268,10.166000366210938,0.00573328,0,154.5,-86.9104042,40.4242119,9.754126604320934,1.7835182368176654,0.083809775,9.754126604320934,1.7835182368176654,0.083809775,-47.14665493,-31.69669733,-51.39652504,-8.75E-05,2.965308472658824E-6,-2.12E-04,Garage
74,12.362625770568847,-61.59853073,-15.46837969,-0.984998134,-0.090004985,0.00925189,0.14694245374546602,-0.008361623,-0.181015414,2.8446571620611043,0.014386974848233737,0.002560652,-0.001816139,-0.021250436,0.012733816,8.692826125367831E-4,-39.11111111,0,0.086023256,1.0437206029891968,10.154000282287598,0.00334393,0,154.5,-86.9104042,40.4242119,9.785953466174671,1.7911990823097599,0.07946262,9.785953466174671,1.7911990823097599,0.07946262,-47.69772919,-31.65899939,-51.04821507,-2.35E-05,5.873538947735842E-5,-4.70E-05,Garage
75,11.919765787124634,-60.79955276,-15.53804167,-0.983528536,-0.104662165,0.011368841601951608,0.1463959578750203,-0.008467441,-0.210795783,2.8451665257944643,-0.099379382,0.47415903008099897,0.007661262,-0.021373723,0.012772934936841462,0.003242531,-22.125,0,0.12727922201156616,1.0536996126174927,10.145000457763672,0.001448515,0,154.5,-86.9104042,40.4242119,9.631113996783506,2.5563796203113296,0.09002124,9.631113996783506,2.5563796203113296,0.09002124,-48.14058891,-30.85977741,-51.11787708,-1.47E-04,9.785421097705375E-5,0.002326261,Garage
76,14.037929725646972,-60.08975689,-15.86475771,-0.977585317,-0.151030491,0.016770429918271244,0.14528725650704022,-0.011644133,-0.304903563,2.844712447,-0.114885664,0.3897817158004613,0.007715175,-0.02229889,0.010151629173988024,-3.40E-04,-25.55555556,0,0.18601074814796448,1.0636696815490723,10.123000144958496,0.003337405,0,154.5,-86.9104043,40.4242119,9.399248400938164,3.384514051733665,0.11844181664286914,9.399248400938164,3.384514051733665,0.11844181664286914,-46.02230297,-30.15022551,-51.44349499,-0.001071948,-0.002523451,-0.001255795,Garage
77,13.035455770492554,-59.23124283,-17.08426962,-0.975834422,-0.16271999,0.016290427456854037,0.14484287841806134,-0.016212525,-0.328160527,2.8441973635293905,-0.008517062,0.31397988726791826,0.024712983,-0.022488668,0.010898879315541352,7.754202227976209E-4,-16.11111111,1.9047956466674805,0.8241965770721436,1.0737075805664062,10.064000129699707,2.022092342376709,177.99221801757812,154.5,-86.9104033,40.4241964,9.439299111227387,3.5312109294446925,0.17787035434389287,9.439299111227387,3.5312109294446925,0.17787035434389287,-47.02502087,-29.29122345,-52.66459301,-0.001261726,-0.001776202,-1.41E-04,Garage
78,17.64278573989868,-61.36172867,-20.51978968,-0.97380198,-0.173802717,0.020444690584413058,0.14515980673067777,-0.011336062,-0.351641348,2.843622413653772,0.15342562869914528,-0.373492476,-0.052445527,-0.017732362,0.019237240891139592,0.001925948,-22.125,1.9264717102050781,0.8061017394065857,1.033280611038208,10.041999816894531,3.4537911415100098,177.99082946777344,154.5,-86.9104066,40.4241693,9.538346130114336,3.0531180311854067,0.057606052835651025,9.538346130114336,3.0531180311854067,0.057606052835651025,-42.41708099,-31.42207541,-56.09974686,0.00349458,0.00656216,0.001009677,Garage
79,13.158675785064696,-60.70280682,-20.33874165,-0.974600588,-0.167415705,0.020642309549074728,0.1472712904214859,-0.009625008,-0.338853829,2.839994539334936,0.14734978351778197,-0.458034442,-0.026864447,-0.013830056,0.006225601,0.026502171657907154,-18.88888889,1.917679786682129,0.9621330499649048,1.0432732105255127,10.01200008392334,4.0603437423706055,176.99334716796875,154.5,-86.91041,40.4241298,9.556370272219759,2.875502011,0.059344325522051274,9.556370272219759,2.875502011,0.059344325522051274,-46.90131302,-30.76278721,-55.91808895,0.007396886,-0.00644948,0.025585900779668855,Garage
80,12.809755744934082,-64.52982494,-19.45948759,-0.973705426,-0.171565139,0.014585646402850313,0.1491516352567858,-0.024202751,-0.345278547,2.8333793982718753,0.10826731654046809,0.004795875,-0.024597712,-0.016249723,0.004541323,-0.010575664,-16.625,1.5545793771743774,0.9730878472328186,1.0533108711242676,9.961000442504883,5.870668411254883,177.98997497558594,154.5,-86.9104189,40.4240684,9.529782068,3.3944541458944673,0.20264942649733816,9.529782068,3.3944541458944673,0.20264942649733816,-47.24986706,-34.59041534,-55.03968887,0.004977219,-0.008133758,-0.011491935,Garage
81,11.799717750549316,-63.85980053,-19.16241768,-0.975327815,-0.160512862,0.01573175,0.15061882167186552,-0.018644437,-0.323466345,2.832085704340518,-0.169873029,-0.119046681,-0.02389744,-0.02027064,0.02861938,-0.018878442,-18.88888889,1.1922557353973389,0.9284933805465698,1.0633094310760498,9.93500042,7.269319057,177.99447631835938,154.5,-86.91042,40.4239976,9.26021494,3.0413705029533906,0.15404666944415968,9.26021494,3.0413705029533906,0.15404666944415968,-48.2600272,-33.91978134,-54.7420089,9.563021091699094E-4,0.0159443,-0.019794713,Garage
82,13.253225774765015,-61.59108879,-17.83029968,-0.975661194,-0.156163793,0.028677292293510757,0.1511307044957693,0.009212204,-0.318769426,2.8356944781083326,0.2759463649529677,-0.760199025,-0.036895033,-0.023012496,0.039893025,0.013438639678217722,-24,1.067031979560852,0.9308598041534424,1.073261022567749,9.93500042,8.718283653259277,177.99517822265625,154.5,-86.9104214,40.4239147,9.727947873976625,2.353622749013808,-0.126598902,9.727947873976625,2.353622749013808,-0.126598902,-46.80676311,-31.65119152,-53.41050095,-0.001785554,0.027217944164966375,0.012522368762942139,Garage
83,15.142273645401001,-55.04005497,-18.52777365,-0.977619219,-0.14191328,0.035348777,0.15120619506511873,0.027361508,-0.292311536,2.8387156667061224,-0.011755068,-0.327958528,0.052163765,-0.02336639,0.012986435,-0.009958886,-15.22222222,1.0813648700714111,1.007670521736145,1.0833009481430054,9.93500042,9.408092498779297,177.9975586,154.5,-86.9104255,40.4238229,9.483781208112402,2.5306451552122544,-0.207719658,9.483781208112402,2.5306451552122544,-0.207719658,-44.91734913,-25.09954748,-54.10699913,-0.002139448,3.1135395933304307E-4,-0.010875157,Garage
84,9.443287853002548,-57.71490505,-4.906595873,-0.978816327,-0.139861165,0.028275445411072193,0.14677848341395555,0.014900943598917965,-0.285988243,2.846042929343807,0.1070314703635799,-0.103525368,0.099934403,-0.028597141,0.002240267,0.006611087,-15.11111111,1.062190055847168,1.0131633281707764,1.0933438539505005,9.93500042,10.11771297454834,177.99766540527344,154.5,-86.9104245,40.423724,9.623168885,2.695035556566368,-0.041845359,9.623168885,2.695035556566368,-0.041845359,-50.61706696,-27.77488544,-40.48716322,-0.007370198,-0.010434813,0.005694816,Garage
85,16.006521701812744,-57.04475887,-19.31747965,-0.98068089,-0.130327396,0.025890752835904512,0.14328008051057464,0.013914148626143782,-0.266191406,2.8532625865010384,0.133293281,-0.421477245,-0.04566416,-0.019725029,0.017517379688514956,-0.004894191,-20.125,0.6999237537384033,0.9231467843055725,1.1032613515853882,9.93500042,10.723235130310059,178.94842529296875,154.5,-86.9104208,40.4236224,9.678449924175556,2.186967997596814,-0.175196606,9.678449924175556,2.186967997596814,-0.175196606,-44.05346722,-27.10486145,-54.89682686,0.001501913,0.004842299,-0.005810462,Garage
86,15.614901733398437,-58.22169296,-19.39812155,-0.982813114,-0.113375368,0.025664561364835907,0.14337814910319244,0.018431304,-0.232299431,2.8540113041701827,0.20073435607465726,-0.136174855,0.071030491,-0.023069862,0.006522129,0.012221392912075864,-15.44444444,0.7526691555976868,1.1981652975082397,1.1132745742797852,9.972000122070312,11.01098346710205,178.9702911376953,154.5,-86.9104162,40.4235175,9.842161651,2.138379062263711,-0.109445502,9.842161651,2.138379062263711,-0.109445502,-44.4455751,-28.28142948,-54.97685905,-0.00184292,-0.006152952,0.011305121985236996,Garage
87,15.052725620269776,-57.18420483,-22.10054367,-0.98262683,-0.114610466,0.025694328351217568,0.1436817530289437,0.018057383407015824,-0.234774547,2.853338711470076,-0.199928279,0.42746102809906006,0.001803165,-0.020579029,0.020375907674852253,-0.008227164,-11.625,0.5127010345458984,0.9013878107070923,1.1233404874801636,10.005000114440918,11.570508003234863,178.9715118408203,154.5,-86.910415,40.4234064,9.410486517600642,2.7365527743274725,-0.170476999,9.410486517600642,2.7365527743274725,-0.170476999,-45.00701914,-27.2443074,-57.68037903,6.479132051344563E-4,0.007700827,-0.009143435,Garage
88,12.366773779392242,-58.90172091,-22.65051956,-0.982465263,-0.113520051,0.028376816274616325,0.14510873292835014,0.023455295,-0.233411272,2.851065825490118,0.058600314612527495,-0.275755218,-0.013974212,-0.019262446,0.014279296129458195,3.7214237500379966E-4,-21.33333333,1.3683019876480103,0.34438350796699524,1.1333601474761963,10.043000221252441,12.910832405090332,179.0007781982422,154.5,-86.9104139,40.4232931,9.693925570515754,1.9960670968861256,-0.238782792,9.693925570515754,1.9960670968861256,-0.238782792,-47.69272734,-28.96133527,-58.22998875,0.001964497,0.001604215,-5.44E-04,Garage
89,13.31959376335144,-59.91395489,-21.25252153,-0.983232205,-0.105144768,0.025299711,0.14681654136914474,0.019328886947522942,-0.215864874,2.8472397350347958,0.10457439606006329,-0.274732193,-0.004523047,-0.019135965,0.007823544,-0.002102724,-18.875,1.3693935871124268,0.7488657832145691,1.1433818340301514,10.114999771118164,13.05942440032959,178.99407958984375,154.5,-86.910412,40.4231741,9.745356809745715,1.8478079172014032,-0.193908656,9.745356809745715,1.8478079172014032,-0.193908656,-46.7403952,-29.97442348,-56.83199089,0.002090977,-0.004851537,-0.003018995,Garage
90,13.419511756896974,-59.39533295,-22.18313763,-0.984017508,-0.09809218,0.019766628163532148,0.1472716298207496,0.010214281,-0.200207203,2.8455015617666892,0.071774501,-0.103074986,0.059104241,-0.028739474,0.013449018328333074,0.003610226,-19,1.397956132888794,0.3138470947742462,1.1534366607666016,10.182000160217285,13.278068542480469,179.00009155273438,154.5,-86.9104112,40.4230508,9.801710091748284,1.8713673515227234,-0.040207552,9.801710091748284,1.8713673515227234,-0.040207552,-46.63986706,-29.45616739,-57.76346096,-0.007512532,7.739374911394513E-4,0.002693955,Garage
91,13.54956374168396,-59.06837307,-21.64255554,-0.984577566,-0.093271168,0.019077662,0.14677102849321458,0.010375227544058873,-0.190414099,2.8466219184468096,0.001102966,-0.033596111,-0.019119889,-0.027233113,0.012749212695674483,1.230590210468011E-4,-21.625,1.3782058954238892,0.6946222186088562,1.1633244752883911,10.218000411987305,13.381637573242188,178.9968262,154.5,-86.9104113,40.4229283,9.772220870823537,1.8499306880154656,-0.120474556,9.772220870823537,1.8499306880154656,-0.120474556,-46.51091305,-29.12823149,-57.22080456,-0.00600617,7.413195003077243E-5,-7.93E-04,Garage
92,14.797013750076294,-58.62173061,-21.12490953,-0.984680348,-0.091608308,0.019658223337050782,0.1470537979915304,0.011981449,-0.187284388,2.8462261713824226,-0.014791007,0.007896254,-0.070756538,-0.019475946,0.010033018146731972,5.1892395877252214E-5,-20.77777778,1.3468772172927856,0.2968164384365082,1.173341989517212,10.23799991607666,13.544620513916016,179.00039672851562,154.5,-86.9104116,40.4228064,9.755415935,1.8595339048255994,-0.187822059,9.755415935,1.8595339048255994,-0.187822059,-45.26309711,-28.68183344,-56.70523296,0.001750997,-0.002642063,-8.64E-04,Garage
93,13.520283746719361,-59.3543409,-19.00406162,-0.984524096,-0.090973036,0.024695725731768654,0.14772897539208235,0.022138466,-0.187524582,2.845794587459379,-0.020700529,-0.041591789,0.026917095,-0.021029751,0.019474463185263816,0.002080142,-19.66666667,1.436619758605957,0.6741661429405212,1.1834514141082764,10.253000259399414,13.608964920043945,179.86375427246094,154.5,-86.910412,40.4226806,9.792528950251066,1.8176507766430194,-0.188112673,9.792528950251066,1.8176507766430194,-0.188112673,-46.5397052,-29.41383341,-54.58377502,1.9719094677728792E-4,0.006799382,0.001163872,Garage
94,12.76339579,-59.16353294,-19.27026564,-0.985480894,-0.082672881,0.022298120649404896,0.14657834678598977,0.020001365251622154,-0.170306375,2.847994589,0.062471033,-0.332528621,0.065721288,-0.031408224,0.017244574,0.001570115,-15.625,1.3573613166809082,0.264007568,1.1933013200759888,10.237000465393066,13.610128402709961,179.9833526611328,154.5,-86.9104144,40.4225563,9.88560409,1.3526940099822664,-0.137462434,9.88560409,1.3526940099822664,-0.137462434,-47.29671497,-29.22351343,-54.84985687,-0.010181282,0.004569493,6.538436932317478E-4,Garage
95,12.37067774772644,-59.29700092,-19.01077175,-0.986483355,-0.069989928,0.027766001166649235,0.14541621824491371,0.034804967186838676,-0.146693589,2.851409548694648,-0.10506161,-0.172168919,-0.13863408,-0.01279814,0.016117768,-0.010350303,-17.66666667,1.3745992183685303,0.6860029101371765,1.2033452987670898,10.210000038146973,13.36996078491211,179.998291,154.5,-86.9104175,40.4224318,9.715109663102233,1.2838335610130458,-0.478126038,9.715109663102233,1.2838335610130458,-0.478126038,-47.68943306,-29.35673744,-54.59146099,0.008428803,0.003442688,-0.011266574,Garage
96,12.68348575592041,-60.33595276,-18.98771372,-0.985805598,-0.065346124,0.03550192,0.15044200131036703,0.050847676,-0.13998246,2.842290357478614,0.20591471033188904,-0.053740449,-0.113542023,-0.005811945,0.018893268538042178,0.011248781797317878,-18.25,1.4679734706878662,0.32449960708618164,1.2133418321609497,10.140999794006348,12.768484115600586,179.99998474121094,154.5,-86.9104195,40.4223153,10.027913167638687,1.3330054931270265,-0.621012976,10.027913167638687,1.3330054931270265,-0.621012976,-47.37638111,-30.39568937,-54.5677927,0.015414997374693167,0.006218188,0.010332510824138932,Garage
97,12.757661771774291,-59.92542286,-19.57770561,-0.984720109,-0.07002937,0.021952695159528118,0.15756067218115696,0.021368361334540308,-0.145319033,2.825751082,0.22619362060840315,-0.0966179,0.051652605,-0.005344914,-0.030789051,0.018595600102763947,-15.22222222,1.3861600160598755,0.22022715210914612,1.2232978343963623,10.130999565124512,12.281954765319824,179.10972595214844,154.5,-86.9104189,40.4222025,10.070037286258438,1.3433056633593967,-0.148000727,10.070037286258438,1.3433056633593967,-0.148000727,-47.30208294,-29.98564745,-55.15827301,0.015882028733568195,-0.043464132,0.017679329,Garage
98,10.950475783348084,-61.37941879,-19.73313356,-0.984431692,-0.06693845,0.012942142929266957,0.16176449153029804,0.003863296,-0.136415507,2.8161113979746992,-0.090445546,-0.091407246,-0.018423968,-0.014850112,0.023578408,-0.016184487,-15.125,1.497053861618042,0.6684309840202332,1.2333683967590332,10.142000198364258,12.00877571105957,178.1540069580078,154.5,-86.9104163,40.4220919,9.756827261841412,1.260985591074732,-0.056452029,9.756827261841412,1.260985591074732,-0.056452029,-49.10963497,-31.43878944,-55.31345692,0.00637683,0.010903326870231591,-0.017102241,Garage
99,13.49356575012207,-62.44460079,-21.43893768,-0.983382289,-0.067803654,0.028273030500678184,0.1659201939129135,0.033462175,-0.143239112,2.809680938720703,-0.058869093,-0.063650877,-0.020602082,-0.012572779,0.041785214454030564,0.001771753,-19.77777778,1.5766628980636597,0.7992496490478516,1.2433702945709229,10.12399959564209,11.603171348571777,178.0535125732422,154.5,-86.9104104,40.421987,9.798147007099633,1.3589490304872827,-0.350504959,9.798147007099633,1.3589490304872827,-0.350504959,-46.56642315,-32.50470327,-57.01926071,0.008654164,0.029110134,8.554825168193399E-4,Garage
100,13.728537673950195,-57.73808495,-21.85093166,-0.982874516,-0.067517176,0.030491300469752656,0.1687077594902909,0.037550804575959454,-0.14350314,2.8043122592481593,0.053337926,0.2266865245346884,0.10282349760092578,-0.019677585,0.017612268637924554,0.010679448563695966,-19.66666667,1.6890451908111572,0.3689173460006714,1.2533198595046997,10.104999542236328,10.89462947845459,177.1367950439453,154.5,-86.910404,40.4218881,9.894264147831844,1.6524913700727315,-0.266213022,9.894264147831844,1.6524913700727315,-0.266213022,-46.3312072,-27.79843145,-57.43088879,0.001549358,0.004937188,0.009763178,Garage
101,10.528477796316146,-57.44052681,-13.89750775,-0.982212291,-0.077579841,0.029849136826916804,0.16821256902032686,0.032979187,-0.163176236,2.8050171426199015,-0.171549806,0.4534987211227417,0.1130696020080048,-0.024018752,0.003402657,-0.004633247,-22.25,1.7273703813552856,0.7242237329483032,1.2632702589035034,10.095000267028809,10.838945388793945,177.02493286132812,154.5,-86.9103962,40.421791,9.646536706720742,2.072515458736605,-0.2095346,9.646536706720742,2.072515458736605,-0.2095346,-49.53151108,-27.50062958,-49.47831896,-0.002791809,-0.009272424,-0.005549518,Garage
102,14.519341735839843,-57.09490097,-17.3372976,-0.981593388,-0.095759463,0.017973482,0.16421286154140546,0.003911456,-0.195144552,2.810454227391956,-0.023449629,0.1590394337200424,0.10168220581107058,-0.033377169,-0.002587205,-0.002450802,-21.66666667,1.751783013343811,0.4601086974143982,1.273357868,10.09000015258789,10.995376586914062,177.00064086914062,154.5,-86.9103884,40.4216924,9.697209960048639,2.077719261345354,0.063377856,9.697209960048639,2.077719261345354,0.063377856,-45.54052509,-27.15475952,-52.91725494,-0.012150226,-0.015262286,-0.003367073,Garage
103,14.012675762176514,-58.60696907,-16.84270966,-0.982239569,-0.101091655,0.018023094307016402,0.15701848196173177,0.003743632,-0.205695887,2.8249503570852927,0.010299543732578315,0.040432534,-0.054236036,-0.031811502,0.016675240717923215,0.002281781,-20.125,1.6124989986419678,0.3889729976654053,1.2833306789398193,10.07699966430664,11.217958450317383,177.8806152,154.5,-86.9103814,40.4215932,9.739810323,2.0748298735294526,-0.089658252,9.739810323,2.0748298735294526,-0.089658252,-46.04706905,-28.66707142,-52.42217892,-0.01058456,0.00400016,0.001365511,Garage
104,17.703663538694382,-57.27948677,-19.00235363,-0.981891699,-0.101847616,0.022145789671832554,0.15817688004328653,0.011519423,-0.208525412,2.8233549159306746,0.014736891,-0.009056152,-0.174657341,-0.007823544,0.012393151,0.003007248,-19.77777778,1.620565414428711,0.27018511295318604,1.2934010028839111,10.015999794006348,11.42077637,177.98683166503906,154.5,-86.9103763,40.4214928,9.745150658690815,2.0478699670254605,-0.290065857,9.745150658690815,2.0478699670254605,-0.290065857,-42.35669143,-27.33983339,-54.58316498,0.013403398526581721,-2.82E-04,0.002090977,Garage
105,15.52462163925171,-58.63734692,-21.28265568,-0.981815281,-0.09992488,0.019390144014676796,0.16022290680014972,0.006183596,-0.203839056,2.818700450137981,-0.017069937,-0.032430774,0.08301502,-0.024303418,0.002880768,-0.001857747,-17.625,1.5928256511688232,0.6911584734916687,1.3033229112625122,10.022000312805176,11.551398277282715,177.98782348632812,154.5,-86.9103717,40.4213896,9.694814228317112,1.9752112117785852,0.022914763870061312,9.694814228317112,1.9752112117785852,0.022914763870061312,-44.53487934,-28.69744942,-56.86249088,-0.003076476,-0.009794313,-0.002774018,Garage
106,15.482775630950927,-58.4126228,-22.28744749,-0.98297114,-0.09132593,0.010553306181128453,0.15896840827557648,-0.0084309,-0.183941496,2.8201737380722194,0.05853465,-0.212831833,0.064636604,-0.035037724,0.010981907046883756,-7.55E-04,-23.33333333,1.6141966581344604,0.37121421098709106,1.3133504390716553,10.006999969482422,11.681012153625488,177.9984893798828,154.5,-86.9103669,40.4212825,9.822766378087906,1.6039723199837417,0.14703663075071516,9.822766378087906,1.6039723199837417,0.14703663075071516,-44.57696926,-28.47248142,-57.86642883,-0.013810782,-0.001693174,-0.001670934,Garage
107,14.040857696533203,-57.68391689,-21.23312359,-0.984451562,-0.078162207,0.005535245,0.15718057187436854,-0.013843906,-0.156270405,2.8238525760983957,0.08131067,-0.277205625,-0.109103947,-0.024398307,0.007909879,5.144756976786314E-4,-18.11111111,1.5583186149597168,0.3894868493080139,1.3233578205108643,10.005000114440918,11.529759407043457,178.88156127929688,154.5,-86.9103624,40.421176,9.870416411986717,1.263381594648728,0.022067461800571227,9.870416411986717,1.263381594648728,0.022067461800571227,-46.0192532,-27.74328751,-56.81234879,-0.003171365,-0.004765202,-4.02E-04,Garage
108,14.519463710784912,-57.7784668,-21.49481367,-0.985219857,-0.06734279,0.009396873,0.15719166904398538,-0.002681505,-0.136069799,2.8249684907857655,-0.005525765,-0.093524155,-0.075470219,-0.018052612,0.014196268297523911,-3.04E-04,-19.875,1.5865156650543213,0.3801315426826477,1.3333038091659546,10,11.075871467590332,178.98817443847656,154.5,-86.9103594,40.4210742,9.861507369476614,1.258952855485157,-0.047365692,9.861507369476614,1.258952855485157,-0.047365692,-45.54040302,-27.83856951,-57.07489296,0.00317433,0.001521188,-0.001220212,Garage
109,14.452485704421997,-58.77459709,-21.25801153,-0.985317393,-0.063428882,0.011905500104705107,0.15806361598875915,0.003438376,-0.129117154,2.8236875441467877,0.030887714867452974,-0.012879477,0.00664008,-0.019143834,0.012927129,0.003847448,-16.25,1.714270830154419,0.3623534142971039,1.3433226346969604,9.996999740600586,10.541842460632324,179.00027465820312,154.5,-86.9103581,40.4209764,9.912372339119031,1.2716690770630699,-0.027247399,9.912372339119031,1.2716690770630699,-0.027247399,-45.60738098,-28.83469944,-56.83760296,0.002083108,2.5204853245138544E-4,0.002931177,Garage
110,15.311487703323364,-59.10668064,-20.13036566,-0.985274833,-0.062316916,0.010573288281131717,0.15886364052596602,0.001043784,-0.126495114,2.821934970837195,0.007335385,-0.042928076,0.021701947397109376,-0.021527918,0.009321351,-5.53E-04,-17.55555556,1.7612136602401733,0.5032891631126404,1.353327989578247,10,10.06889533996582,179.00863647460938,154.5,-86.9103554,40.4208847,9.877978454515771,1.2101381120172519,0.018201714,9.877978454515771,1.2101381120172519,0.018201714,-44.74862328,-29.16678343,-55.71117702,-3.01E-04,-0.003353729,-0.001469295,Garage
111,15.00221776008606,-58.39066284,-20.86944166,-0.985611518,-0.056719523,0.009487763,0.15893314836116937,6.770803664240843E-4,-0.115076446,2.821875418608005,0.021556890927828275,-0.097746664,0.009849551,-0.023388402,0.018454635615433708,4.698826523963362E-5,-19,1.7826530933380127,0.39597979187965393,1.3633525371551514,10.003999710083008,9.404924392700195,179.0053711,154.5,-86.9103516,40.4207985,9.911742247,1.0443335053990188,-0.001213834,9.911742247,1.0443335053990188,-0.001213834,-45.05789322,-28.4503994,-56.44976505,-0.00216146,0.005779555,-8.69E-04,Garage
112,16.259427738189697,-59.00420078,-19.68628559,-0.986143708,-0.047555681,0.008864243,0.15865269505861893,0.002403246,-0.096757863,2.822678765046944,-0.009036592,-0.135282209,0.001761868,-0.023318946,0.012120573765042157,-2.09E-04,-20.44444444,1.9893993139266968,0.29206162691116333,1.3733582496643066,10,8.589820861816406,178.99954223632812,154.5,-86.9103487,40.4207202,9.932752007419623,0.8297373923717193,-0.022145225,9.932752007419623,0.8297373923717193,-0.022145225,-43.80056095,-29.06344942,-55.26648697,-0.002092004,-5.55E-04,-0.001125323,Garage
113,15.517789611816406,-59.22880306,-20.33471565,-0.986473717,-0.042744652,0.007458686,0.15806856838244837,0.001207162,-0.086799545,2.8238747374525346,0.068142928,-0.021556479,-0.008925707,-0.023627335,0.013947185027205105,0.00387117,-24.25,2.1822917461395264,0.27784886956214905,1.3833340406417847,9.996000289916992,7.615059852600098,178.9992218017578,154.5,-86.9103471,40.4206504,9.990928950818997,0.8419221925359328,-0.020911063,9.990928950818997,0.8419221925359328,-0.020911063,-44.54219894,-29.28890547,-55.914795,-0.002400393,0.001272104,0.002954899,Garage
114,14.752117757797242,-59.96495075,-19.67579357,-0.986553481,-0.043161037,0.008561834,0.15738784485650295,0.003319753,-0.087970246,2.825339711,0.006833262,-0.057404268,-0.004091298,-0.02379339,0.011053073672618428,-3.16E-04,-34.11111111,2.514331817626953,0.23345234990119934,1.393376111984253,9.993000030517578,6.737116813659668,178.99490356445312,154.5,-86.9103457,40.4205873,9.952533444154609,0.819768259,-0.03711779,9.952533444154609,0.819768259,-0.03711779,-45.307505,-30.02456547,-55.25575081,-0.002566448,-0.001622007,-0.001232073,Garage
115,14.59559173,-57.54215275,-19.46131763,-0.987040435,-0.031346581,0.005841305,0.15722853654217953,0.001677913,-0.06376152,2.8257150395402633,0.033832022,-0.099462389,0.002152644,-0.025038807,0.010922601521105586,0.002281781,-33.22222222,2.6106228828430176,0.5240228772163391,1.403296947479248,10,5.645361423492432,179.00071716308594,154.5,-86.9103455,40.4205347,10.03210735321045,0.5423165683706219,-0.015725907,10.03210735321045,0.5423165683706219,-0.015725907,-45.46439716,-27.60201149,-55.04176296,-0.003811865,-0.001752479,0.00136551,Garage
116,13.692425727844238,-59.56845062,-18.53448374,-0.986674158,-0.045463044,0.00847918,0.15582762933471828,0.002581559,-0.09249337,2.828438916252655,-0.046716107,0.24194692928814193,-0.011491236,-0.021385585,0.011895212643775294,0.001937809,-36,3.2373499870300293,0.5531726479530334,1.4133579730987549,10,4.4364800453186035,179.99859619140625,154.5,-86.9103458,40.420493,9.901845636,1.1638497681293674,-0.038720749,9.901845636,1.1638497681293674,-0.038720749,-46.36768501,-29.62879742,-54.11517281,-1.59E-04,-7.80E-04,0.001021538,Garage
117,13.383521795272827,-60.66742706,-20.27371565,-0.98665398,-0.046820845,0.009406753,0.1556380930745486,0.004006683,-0.095465933,2.828873210740321,0.012689192318221897,-0.113089587,0.005030386,-0.02080439,0.015761935163415897,9.933685334580182E-5,-36.33333333,4.3971381187438965,0.2121320366859436,1.423355221748352,9.994999885559082,3.6006627082824707,180,154.5,-86.9103465,40.4204602,9.944059853414887,0.8362682826310686,-0.032314721,9.944059853414887,0.8362682826310686,-0.032314721,-46.67634506,-30.72777342,-55.85391682,4.2255211494935367E-4,0.003086854,-8.17E-04,Garage
118,13.575305671691895,-61.35550682,-19.44252954,-0.9870453,-0.037548589,0.010180690782502867,0.15564282009234795,0.008434079,-0.077370634,2.829121481913787,4.8817121065579925E-4,-0.065880577,-0.011244403,-0.021038989,0.016868782,-8.34E-04,-37.5,5.280957221984863,0.471699059,1.433292031288147,9.991000175476074,2.3449926376342773,180,154.5,-86.9103465,40.4204348,9.955056913,0.7062543818672884,-0.095843582,9.955056913,0.7062543818672884,-0.095843582,-46.48431705,-31.41524328,-55.0228529,1.8795298484082406E-4,0.004193701,-0.001750312,Garage
119,13.71292173,-60.8485968,-16.96409964,-0.986612318,-0.049419547,0.012544006977266478,0.154535431,0.009542923,-0.101579014,2.8313409703449137,-0.072312688,0.3736820545011354,0.007332634,-0.020828112,0.012642462688127479,0.002779948,-39.77777778,7.762697696685791,0.43840619921684265,1.1595029830932617,9.998999596,1.4829226732254028,180,150.09999084472656,-86.9103463,40.4204193,9.816769794353004,1.3814398206553413,-0.087059252,9.816769794353004,1.3814398206553413,-0.087059252,-46.34706703,-30.90857742,-52.54308098,3.9882990090827486E-4,-3.26E-05,0.001863677,Garage
120,11.493375797271728,-63.40876682,-12.31126378,-0.982829676,-0.101254165,0.019798747453730083,0.15194155275821686,0.008349153,-0.206577979,2.8356883942502216,-0.100340704,0.5314651067974498,0.006586838,-0.018871029,0.011835907071091922,0.001807337,-32.875,9.911658287,0.3471311032772064,1.1696287393569946,9.996999740600586,1.290404200553894,180,150.09999084472656,-86.9103457,40.4204088,9.611010292201366,2.5670021216846206,-0.07456953,9.611010292201366,2.5670021216846206,-0.07456953,-48.56697887,-33.46850349,-47.89097713,0.002355913,-8.39E-04,8.910659901815855E-4,Garage
121,28.592529516220093,-69.08847679,-0.893283966,-0.977618548,-0.144606399,0.025298166,0.14945196526721843,0.006528649,-0.294656645,2.839150111652115,-0.178771269,1.037153197723685,-0.004657922,-0.012821862,0.012938990432868521,0.007500671,-14,7.531634330749512,0.30016660690307617,1.1794921159744263,9.993000030517578,2.1885454654693604,180,150.09999084472656,-86.9103455,40.4203941,9.375465318994614,3.9385599441898678,-0.067112286,9.375465318994614,3.9385599441898678,-0.067112286,-31.46709338,-39.14833515,-36.47226543,0.00840508,2.639096838340742E-4,0.0065844,Garage
122,14.26118974685669,-52.14999699,-18.35660756,-0.973530267,-0.170334727,0.028467594,0.1496114270779693,0.004753143,-0.347108492,2.837458295729554,-0.01591251,-0.19141924,-0.050016976,-0.005883112,0.009985574,-0.005451663,-20.33333333,4.462170124053955,0.41109609603881836,1.1894956827163696,9.989999771118164,4.203962326049805,179.00047302246094,150.09999084472656,-86.9103454,40.4203631,9.440099514447725,3.2253034665034366,-0.092762141,9.440099514447725,3.2253034665034366,-0.092762141,-45.79818935,-22.21034356,-53.93644314,0.015343830767042429,-0.002689507,-0.006367935,Garage
123,12.340665769577026,-62.05261463,-23.36690355,-0.975912519,-0.15333018,0.021583416,0.15360526899689608,-0.005207797,-0.31088838,2.8285677895962613,0.10300409446642236,-0.827107572,0.017579997,-0.009287251,-9.27E-04,-0.007349441,-25.25,3.3930389881134033,0.27586227655410767,1.1994537115097046,9.991999626159668,5.2885308265686035,178.0015411376953,150.09999084472656,-86.9103441,40.4203166,9.640525623,2.226338513846536,0.068962079,9.640525623,2.226338513846536,0.068962079,-47.71932323,-32.11296146,-58.94686077,0.011939691604020128,-0.01360173,-0.008265712,Garage
124,11.099437730312347,-60.37316277,-18.5893836,-0.976093766,-0.151651329,0.015449627374922767,0.15488591587659226,-0.017637049,-0.305575708,2.8241333730012466,-0.057563152,0.11792831513488176,0.04082754,-0.023698501,0.006866101,0.006516198,-15.88888889,3.002872943878174,0.6720119118690491,1.2094558477401733,9.994000434875488,6.192770957946777,177.9982147216797,150.09999084472656,-86.9103427,40.4202622,9.456429268549947,3.1387676706591856,0.20005042677111154,9.456429268549947,3.1387676706591856,0.20005042677111154,-48.95969696,-30.4332654,-54.17019485,-0.002471559,-0.00580898,0.005599927,Garage
125,11.00976778447628,-61.21593857,-27.14682951,-0.97630461,-0.153718708,0.009479003,0.15199175795305123,-0.029621553,-0.307877973,2.8281144702318803,-0.032897884,-0.060806397,0.067095144,-0.036686419,0.015358657315056952,-0.007788303,-15.125,2.686171531677246,0.4883646070957184,1.2194823026657104,9.994999885559082,7.335234165,177.99935913085938,150.09999084472656,-86.910341,40.4201984,9.436581047,2.945904435463322,0.3545704335471597,9.436581047,2.945904435463322,0.3545704335471597,-49.05070904,-31.27640736,-62.72642075,-0.015459477,0.002683576,-0.008704574,Garage
126,17.24445571899414,-58.89989109,-33.29306717,-0.977997844,-0.144543293,0.009392501,0.15009056604825532,-0.026110764,-0.289578383,2.8332239870841684,0.14875219876949602,-0.448125549,-0.041127892,-0.031787552,0.013473881122571094,0.00296026,-20.44444444,2.464709520339966,0.5467174649238586,1.2294684648513794,10.00100040435791,8.513777732849121,177.99920654296875,150.09999084472656,-86.9103398,40.420125,9.682173557651852,2.386294654850821,0.20841949847662478,9.682173557651852,2.386294654850821,0.20841949847662478,-42.81577702,-28.95901733,-68.87400085,-0.010560609,7.988002258711136E-4,0.002043989,Garage
127,26.185347633361815,-54.59536503,-35.1335593,-0.979088006,-0.135191185,0.008974334,0.15173643321088218,-0.024339552,-0.270749819,2.8307682819736812,0.049105515,-0.284410663,-0.10176986,-0.02101789,0.012428962708071091,4.6703123738446714E-4,-18,2.302985906600952,0.48795491456985474,1.2395129203796387,10.008000373840332,8.968091965,178.9977264404297,150.09999084472656,-86.9103386,40.4200445,9.634738172142251,2.377054408337306,0.13159072513520284,9.634738172142251,2.377054408337306,0.13159072513520284,-33.87403128,-24.65558956,-70.71363846,2.090520416476845E-4,-2.46E-04,-4.49E-04,Garage
128,23.357997589111328,-54.7971529,-29.37918549,-0.978397362,-0.13562413,0.011137801665559556,0.15562508899031333,-0.021200645,-0.272204524,2.8232097926649073,-0.035062318,0.2305931292691277,-0.059424853,-0.01909639,0.011574962616613298,0.001119392,-15.88888889,2.2365167140960693,0.724016547,1.2494486570358276,10.013999938964844,9.861673355102539,178.99940490722656,150.09999084472656,-86.9103401,40.4199595,9.537047673197625,2.9030804691962824,0.1435432220194308,9.537047673197625,2.9030804691962824,0.1435432220194308,-36.70162514,-24.85774345,-64.95938675,0.002130552,-0.001100118,2.0312134728052664E-4,Garage
129,16.49037374,-56.16879898,-32.54557335,-0.978107421,-0.134158538,0.012547233,0.1585659480210647,-0.018674681,-0.269682181,2.8176220180918867,-0.063912642,-0.064745182,-0.016145528,-0.021848168,0.017493657394791546,-0.006578469,-16.11111111,2.1597394943237305,0.6742402911186218,1.2594913244247437,10.03600025177002,11.010881423950195,178.99949645996094,150.09999084472656,-86.9103426,40.4198633,9.493857447917645,2.583006026653143,0.16142349927059302,9.493857447917645,2.583006026653143,0.16142349927059302,-43.5696151,-26.22865757,-68.12492119,-6.21E-04,0.004818577,-0.00749474,Garage
130,16.852957677841186,-56.14525307,-32.13675127,-0.977964606,-0.131315082,0.014642175928987925,0.16158972275488584,-0.014288164,-0.264654958,2.8121999050807025,0.026415455,-0.225939304,-0.041583139,-0.020069001,0.005371601,-0.001561219,-16.625,2.0900638103485107,0.7494664788246155,1.2694720029830933,10.039999961853027,11.871514320373535,178.99952697753906,150.09999084472656,-86.9103416,40.4197561,9.584558551751295,2.3559052284481456,0.098216077,9.584558551751295,2.3559052284481456,0.098216077,-43.20654312,-26.20462353,-67.71756256,0.001157941,-0.00730348,-0.00247749,Garage
131,24.049615573883056,-55.44253315,-31.47319319,-0.980147352,-0.109114431,0.008967838,0.16512018688095426,-0.018896449,-0.218609206,2.805716456718815,0.18855346753759292,-0.426334025,-0.010110312,-0.019606418,0.015619601792705617,0.001676865,-21,1.9605203866958618,0.5093132853507996,1.2794908285140991,10.043000221252441,12.387670516967773,178.9999542236328,150.09999084472656,-86.9103415,40.4196428,9.813749739267294,1.6999291528775855,0.17070931061035366,9.813749739267294,1.6999291528775855,0.17070931061035366,-36.01025141,-25.50202551,-67.05388252,0.001620524,0.002944521,7.605937821564527E-4,Garage
132,26.559033470153807,-56.00983299,-30.97799534,-0.980580056,-0.100356581,0.009304852,0.16823366906457735,-0.015837524,-0.201301836,2.800171699338746,0.016584414880252578,-0.099193839,-0.010354976,-0.019464085,0.009866963,-1.85E-04,-19.875,1.894499421,0.4883646070957184,1.2895311117172241,10.041000366210938,12.549323081970215,178.99998474121094,150.09999084472656,-86.910339,40.4195297,9.739531591,1.8927691735110237,0.151183413,9.739531591,1.8927691735110237,0.151183413,-33.50058931,-26.06993563,-66.55831856,0.001762858,-0.002808118,-0.001101601,Garage
133,25.830449485778807,-52.54966904,-28.33413343,-0.980924456,-0.10010362,0.004300542,0.16654079077908626,-0.025402236,-0.199133117,2.8027061430307536,0.12673893800148597,0.047583357645915106,0.17982623210320106,-0.046353909,0.025878779231928863,0.005944014,-15.22222222,1.9093828201293945,0.5445181131362915,1.2995541095733643,10.039999961853027,12.858389854431152,178.9999542236328,150.09999084472656,-86.910336,40.4194119,9.795455044,2.0011111821943115,0.41919697249235893,9.795455044,2.0011111821943115,0.41919697249235893,-34.22966141,-22.60867359,-63.91372475,-0.025126967,0.013203698,0.005027743,Garage
134,27.245649433135988,-55.79242878,-23.16413952,-0.982180491,-0.098641905,0.008052543,0.15972182921414235,-0.016013392,-0.197621141,2.8175743528940145,0.040298777,-0.434452571,-0.103355376,-0.030625391,0.023234435461136033,-0.008488108,-12.75,1.8197263479232788,0.35608989000320435,1.3095781803131104,10.041999816894531,13.33892536,179.99696350097656,150.09999084472656,-86.910337,40.4192911,9.731862308909593,1.5064154299500498,0.051799969,9.731862308909593,1.5064154299500498,0.051799969,-32.81458347,-25.85265345,-58.74458492,-0.009398448,0.010559354713231831,-0.009404379,Garage
135,21.88728759765625,-57.03109497,-9.576877789,-0.983061325,-0.089370033,0.020731452,0.15858492081605116,0.012628225986597137,-0.183320461,2.822860049,0.14907766082911816,-0.528452424,-0.357956799,-0.009536334,0.031466047,0.002186892,-12.77777778,1.7796642780303955,0.5939697027206421,1.3194743394851685,10.079999923706055,13.08162784576416,180.99693298339844,150.09999084472656,-86.9103403,40.4191717,9.880978181524185,1.276048175850431,-0.480942834,9.880978181524185,1.276048175850431,-0.480942834,-38.17257915,-27.09107553,-45.15707905,0.011690608328050092,0.018790966230987128,0.001270621,Garage
136,18.91304956436157,-58.00526501,-12.63663774,-0.982775862,-0.079675016,0.023480120286779496,0.16505293982121552,0.020132463479649674,-0.165107693,2.8104713680674727,0.14532853561697653,-0.618319096,-0.22167233,-0.005930556,0.012784796013627924,0.003171365,-15,1.7322359085083008,0.4816637933254242,1.3295491933822632,10.076000213623047,12.671650886535645,180.00265502929688,150.09999084472656,-86.9103421,40.4190574,9.886475948187021,1.0028572777295126,-0.411260639,9.886475948187021,1.0028572777295126,-0.411260639,-41.14657322,-28.06512337,-48.21586319,0.015296386379649122,1.0971533410359645E-4,0.002255094,Garage
137,20.398521604537965,-57.40929497,-18.89206564,-0.983042763,-0.069749573,0.025248900417563985,0.16766587478443257,0.026539082774548854,-0.14612226,2.8056626042116037,0.21157770249450092,-0.769933566,0.002576198,-0.019286168,0.017659713179596418,0.002044559,-13.88888889,1.5137889385223389,0.22627416253089905,1.3395668268203735,10.06499958,11.910682678222656,179.00181579589844,150.09999084472656,-86.9103404,40.4189474,10.052744518205957,0.6768174357169751,-0.245183014,10.052744518205957,0.6768174357169751,-0.245183014,-39.66183308,-27.46939751,-54.47141289,0.001940774,0.004984632,0.001128288,Garage
138,17.977065639495848,-58.71920868,-27.30030542,-0.983847159,-0.060035228,0.023405795428648735,0.16698640223267008,0.026217350229910275,-0.126284584,2.806995590913643,0.16139895244709496,-0.82342937,-0.0408452,-0.024422029,0.012630602,-0.002581274,-19.66666667,1.6859989166259766,0.7158910632133484,1.3495630025863647,10.071000099182129,10.810014724731445,179.00074768066406,150.09999084472656,-86.9103376,40.4188451,10.028418415958441,0.4283762319935757,-0.307585156,10.028418415958441,0.4283762319935757,-0.307585156,-42.08255703,-28.77955545,-62.87953072,-0.003195087,-4.45E-05,-0.003497545,Garage
139,16.29395365715027,-57.51799709,-28.64474541,-0.984058263,-0.045067681,0.025499438866972923,0.17000233085410107,0.035051836,-0.09753458,2.8011372945841075,0.2426501200037095,-1.12839948,-0.062231258,-0.016736029,0.025155935582854033,-0.016008053,-23.5,1.759224534034729,0.2121320366859436,1.3595579862594604,10.055000305175781,9.511027336120605,178.99990844726562,150.09999084472656,-86.910335,40.4187548,10.154099700520339,-0.164529788,-0.424409494,10.154099700520339,-0.164529788,-0.424409494,-43.76579113,-27.57822151,-64.22433666,0.004490914,0.012480854734923075,-0.016924324,Garage
140,12.86221573829651,-57.80884487,-21.16821959,-0.984103891,-0.021239253,0.019827499228995293,0.1749138210255366,0.031673393839110546,-0.048747469,2.790643036365509,0.1973659350321843,-1.170817715,0.018092462219871007,-0.014014246,-0.011864533,0.009103974,-32.44444444,2.024683713912964,0.5024937987327576,1.3695186376571655,10.010000228881836,7.648380279541016,179.0007781982422,150.09999084472656,-86.9103323,40.4186818,10.166540025507363,-0.688877377,-0.293646383,10.166540025507363,-0.688877377,-0.293646383,-47.19752903,-27.86870342,-56.747201,0.007212696,-0.024539614,0.008187702,Garage
141,13.172705726623535,-59.02591694,-20.66728764,-0.982777741,0.029426546388297812,-7.22E-04,0.1814820164615668,0.009360504,0.058164199,2.776180255760267,0.19902807069056241,-0.749063713,-0.030405248,-0.018586362,7.813508911691245E-4,0.010347337,-35.625,2.7649736404418945,0.5166236758232117,1.379494309425354,10.013999938964844,5.3508477210998535,178.00473022460938,150.09999084472656,-86.9103289,40.4186266,10.491476068218935,-1.35190124,-0.126488554,10.491476068218935,-1.35190124,-0.126488554,-46.8871611,-29.08540941,-56.24700096,0.00264058,-0.01189373,0.009431066,Garage
142,13.923981771469116,-59.56247292,-20.33605757,-0.982374012,0.036226641,-0.0057277,0.18264413892644124,0.002038358,0.073348221,2.7738470498797962,-0.157277237,0.6235760745492954,0.017858423,-0.019760612,0.009036685,0.004132115,-39.33333333,5.374250411987305,0.27802878618240356,1.3894912004470825,10.010000228881836,2.284181833267212,178.00148010253906,150.09999084472656,-86.9103255,40.4185974,10.141366088274614,-0.136277642,-0.003316267,10.141366088274614,-0.136277642,-0.003316267,-46.136007,-29.62245344,-55.91638088,0.00146633,-0.003638396,0.003215844,Garage
143,13.045825719833374,-57.85300854,-20.58371758,-0.983098927,-0.044683441,0.006755975,0.17600097138326146,-0.002401592,-0.090402071,2.7871709842126347,-0.196150752,0.8838387953424917,0.007754899,-0.019796195,0.012310352,0.001238004,-40.25,13.635269165039062,0.22671568393707275,1.399463176727295,10.01099967956543,0.9312366247177124,178.0001220703125,150.09999084472656,-86.9103237,40.4185895,9.730581681705216,1.7811196035551793,0.031475491,9.730581681705216,1.7811196035551793,0.031475491,-47.01355309,-27.91359947,-56.16391903,0.001430747,-3.65E-04,3.2173269157053774E-4,Garage
144,12.434361763000489,-57.70709702,-20.59725973,-0.981354606,-0.08092183,0.013137782987171007,0.17375344934972745,-0.00236269,-0.164132429,2.790927565213546,-0.052310397,0.2770051504801778,-0.006718633,-0.013237001,0.016592213,-0.002521969,-31.44444444,16.127586364746094,0.26248809695243835,1.4095158576965332,9.989999771118164,0.939988911,178,150.09999084472656,-86.9103227,40.4185861,9.707871299523573,1.9027599096298218,0.014647410748204073,9.707871299523573,1.9027599096298218,0.014647410748204073,-47.62574917,-27.7664674,-56.17758301,0.007989941,0.003917132,-0.00343824,Garage
145,11.95953776359558,-58.14349098,-21.33133362,-0.973490104,-0.131643216,0.032831725,0.18252091558234204,0.016126773123475678,-0.271903963,2.773278245648134,-0.153132087,0.7229347356314798,-0.253191575,0.067821837,0.031632102808906035,-3.51E-04,-22.44444444,12.29434871673584,0.20518285036087036,1.4194469451904297,9.98900032,1.3896585702896118,177.0018768310547,150.09999084472656,-86.910323,40.4185782,9.387777939583492,3.388361731779228,-0.414446174,9.387777939583492,3.388361731779228,-0.414446174,-48.10032909,-28.20359344,-56.91177906,0.08904878,0.018957022,-0.001267656,Garage
146,13.394989786148072,-56.62812881,-24.2949575,-0.948851803,-0.144664914,0.076245243,0.26702430410292544,0.071297668,-0.321852871,2.6044973053978486,0.035066818,-0.191161808,-0.557491685,0.25298565365735765,0.062281216,0.004310032,-15.375,6.766096591949463,0.8909545540809631,1.9461469650268555,9.998999596,3.096601724624634,173.96632385253906,145.29998779296875,-86.9103184,40.418559,9.498109113822863,2.9697803872302897,-1.237086401,9.498109113822863,2.9697803872302897,-1.237086401,-46.66499908,-26.68847557,-59.87552486,0.27421259634124423,0.049606135,0.00339376,Garage
147,11.918667755126954,-55.34603096,-29.43920946,-0.899724984,-0.109593567,0.10902760801120447,0.40536370787482995,0.11344864362707505,-0.290641634,2.3116389971513014,0.17513093581566444,-0.687563494,-0.455380796,0.30424892243284446,0.069178452,-0.003700325,-20.11111111,2.126133680343628,0.606052816,1.9561179876327515,10.013999938964844,4.603449821472168,155.99559020996094,145.29998779296875,-86.9102995,40.4185251,9.724018939490458,2.180122781147077,-1.545281377,9.724018939490458,2.180122781147077,-1.545281377,-48.14144314,-25.40588953,-65.01916653,0.32547586497205955,0.056503371,-0.004616596,Garage
148,10.368779850006103,-50.66818497,-34.32006332,-0.828153417,-0.084128728,0.13154322871016066,0.5365206526899801,0.13302901792294772,-0.28538543,2.0109768342045906,0.069129333,0.030604401838432237,-0.478272409,0.2917477685270958,0.085766218,0.009694976,-13.5,1.9405715465545654,0.6965630054473877,1.9660882949829102,10.022000312805176,5.037545204162598,138.06967163085938,145.29998779296875,-86.9102604,40.418491,9.614015829,2.856710806633662,-1.755480979,9.614015829,2.856710806633662,-1.755480979,-49.69133106,-20.72828751,-69.90063057,0.31297471106631086,0.073091136,0.008778705,Garage
149,9.323727874755859,-44.91759315,-36.45884533,-0.743478182,-0.067724062,0.17061898358238553,0.6421171056414113,0.17691620070378758,-0.325986267,1.745983329791467,-0.047490435,-0.155558558,-0.160597961,0.23713920894757057,0.071414272,-0.002344052,-16.22222222,1.1035542488098145,0.5903388857841492,1.9760990142822266,10.020000457763672,6.698530673980713,116.05873107910156,145.29998779296875,-86.9101968,40.4184625,9.395972761135656,3.087400397050728,-1.848995625,9.395972761135656,3.087400397050728,-1.848995625,-50.73662704,-14.97708572,-72.03868088,0.2583661496060566,0.058739191,-0.003260323,Garage
150,8.398113851547242,-38.782701,-37.16278534,-0.678322945,-0.059402103,0.1692380928298802,0.712182802,0.15389729226098478,-0.32737797,1.5476227882996345,0.090424806,-0.195578772,0.11672940069031947,0.13799217538636865,0.040207686585948345,-3.99E-04,-13.77777778,1.6885006427764893,0.8772684931755066,1.986113191,10.062999725341797,7.6239471435546875,105.04545593261719,145.29998779296875,-86.9101087,40.4184433,9.496718203,3.0372788929244847,-1.342298,9.496718203,3.0372788929244847,-1.342298,-51.66187511,-8.843169823,-72.74359634,0.15921911770857652,0.027532606,-0.001315101,Garage
151,9.063867826461792,-36.96904934,-37.67042725,-0.65179612,-0.072625411,0.13898367818119456,0.7419249230218166,0.07713655,-0.305603388,1.453627740295188,0.069158239,-0.440557147,0.3670398561121191,0.011007111732061337,0.018715351939233002,-0.013564664,-25.375,1.545807123184204,0.518652081,1.996108055114746,10.060999870300293,8.823704719543457,97.01128387451172,145.29998779296875,-86.9100066,40.4184346,9.517135702646696,2.537352579144331,-0.357741367,9.517135702646696,2.537352579144331,-0.357741367,-50.99587715,-7.029029877,-73.2502623,0.032234053977412504,0.006040271,-0.014480935,Garage
152,10.461865797042847,-32.44809526,-38.55285336,-0.654385082,-0.075473833,0.12053374924416681,0.7426554410202989,0.047537781985350025,-0.281525768,1.451329335425664,0.030300658883400333,-0.047915631,0.21891938583943452,-0.013059084,0.008858768,-0.001750997,-16.22222222,1.2965195178985596,0.8297590017318726,2.006206750869751,10.052000045776367,9.600429535,95.00630950927734,145.29998779296875,-86.9098933,40.4184309,9.530104438078057,2.7193587185109704,-0.240740027,9.530104438078057,2.7193587185109704,-0.240740027,-49.59787895,-2.507709951,-74.13183441,0.008167858,-0.003816313,-0.002667268,Garage
153,10.711721782684327,-31.81186535,-38.39327751,-0.659004582,-0.085047864,0.11596167695175097,0.7382598935979084,0.028431472,-0.287251542,1.4615864094021251,0.002850708,0.008482544,0.047337002,-0.014363807,0.015192601726349732,-8.61E-04,-16.625,1.0962772369384766,0.380788654,2.016129732131958,10.03600025177002,10.436738967895508,93.1151123,145.29998779296875,-86.9097725,40.4184295,9.535038114751426,2.8221252219190873,-0.218832922,9.535038114751426,2.8221252219190873,-0.218832922,-49.34777893,-1.871479938,-73.97335632,0.006863136,0.002517521,-0.001777684,Garage
154,10.542019815444947,-31.87042522,-38.12682926,-0.665213804,-0.087964117,0.10958772102027263,0.7333021395414778,0.01747298,-0.281461034,1.4759780631482022,0.007714272,-0.050146353,0.034844650805575174,-0.019784335,0.010068601391219435,4.4330909285350767E-4,-11.55555556,1.0011998414993286,0.2617250382900238,2.0260791778564453,10.027000427246094,11.504547119140625,92.06293487548828,145.29998779296875,-86.9096408,40.4184278,9.555818539,2.708289014482961,-0.130699227,9.555818539,2.708289014482961,-0.130699227,-49.51821312,-1.931015953,-73.70715225,0.001442608,-0.002606479,-4.73E-04,Garage
155,10.847507724761963,-31.94338135,-38.40657547,-0.672896278,-0.086632779,0.1053027376675835,0.7270528020767065,0.016343321,-0.27309699,1.4957100049807475,-0.019227725,-0.034188789,-7.16E-04,-0.019547112,0.012475380684638647,-6.93E-04,-15.875,0.9167577028274536,0.4545327126979828,2.036088228225708,10.03600025177002,12.36734676361084,92.03388977050781,145.29998779296875,-86.9094964,40.418426,9.518880834857237,2.6405756195772043,-0.158417056,9.518880834857237,2.6405756195772043,-0.158417056,-49.21260307,-2.002873935,-73.9858004,0.00167983,-2.00E-04,-0.001609348,Garage
156,10.354749794006347,-32.19958126,-38.31605137,-0.680154321,-0.083307258,0.10167042332366832,0.7211519254064097,0.018763061341585466,-0.262990167,1.514758667899567,-0.105614139,-0.382284602,-0.003182756,-0.020685779,0.025120352346278293,-0.009733525,-24.77777778,0.8151347041130066,0.5491812229156494,2.0461487770080566,10.015999794006348,13.25009536743164,92.04188537597656,145.29998779296875,-86.9093414,40.4184225,9.54204238,2.215896063637965,-0.184325749,9.54204238,2.215896063637965,-0.184325749,-49.7046291,-2.259683934,-73.89637444,5.411632173667545E-4,0.012445271531689587,-0.010649796,Garage
157,8.203645815849304,-33.78545929,-37.83622536,-0.688223671,-0.06400875,0.092372677,0.7167136860125273,0.036305420353864006,-0.222356586,1.5342961086810214,0.15018217771956063,-0.034353631,0.011747969296372052,-0.021860029,0.019735408,0.004487948,-16.77777778,0.785728931,0.8720664978027344,2.0560948848724365,10.031000137329102,13.596271514892578,92.04181671142578,145.29998779296875,-86.9091771,40.4184184,9.798417035815785,2.148812814823632,-0.338691848,9.798417035815785,2.148812814823632,-0.338691848,-51.85658699,-3.845073929,-73.41691444,-6.33E-04,0.007060326,0.003571677,Garage
158,8.870985875,-33.46679533,-37.53683743,-0.696230488,-0.070523026,0.089001251,0.7087535898662308,0.024573910131471827,-0.226299578,1.555761749304614,-0.168950451,0.14854071325468785,0.015476656914914696,-0.02165839,0.005490212,-0.006412414,-16.375,0.8172475099563599,0.3679673969745636,2.066143513,10.024999618530273,14.414277076721191,91.06198120117188,145.29998779296875,-86.9090052,40.4184143,9.493650381381695,2.3696076686565695,-0.216909948,9.493650381381695,2.3696076686565695,-0.216909948,-51.18900299,-3.52726393,-73.1164283,-4.31E-04,-0.007184869,-0.007328685,Garage
159,8.725195879936217,-32.89620123,-38.83137951,-0.704656097,-0.074039683,0.079114666,0.7012021599464047,0.007835492,-0.217017342,1.5765777062443853,-0.219913409,0.16206459397251166,0.019624673191783498,-0.020602751,-0.006192983,-0.01447797,-13.33333333,0.7398772239685059,0.7657675743103027,2.076190948486328,10.045999526977539,14.867740631103516,91.99085998535156,145.29998779296875,-86.9088277,40.4184111,9.458241282157527,2.299424157559293,-0.056190677,9.458241282157527,2.299424157559293,-0.056190677,-51.33491478,-2.956181945,-74.41194679,6.241909600116168E-4,-0.018868064,-0.01539424,Garage
160,8.868423881530761,-31.38096128,-39.02169933,-0.711663814,-0.071129221,0.074576851,0.6949111599366642,0.007438041,-0.206349152,1.5953828813960251,-0.199576531,0.057628658,-0.086393798,-0.01696139,0.014813046211837927,-0.017383942,-14,0.6886413097381592,0.4360045790672302,2.0861966609954834,10.043000221252441,15.899131774902344,92.01666259765625,145.29998779296875,-86.9086438,40.4184067,9.447999204246743,2.075387417691425,-0.167175252,9.447999204246743,2.075387417691425,-0.167175252,-51.19205299,-1.441185958,-74.60153435,0.004265552,0.002137965,-0.018300213,Garage
161,8.476193828582764,-30.76486137,-39.07269527,-0.716322721,-0.067447065,0.070346028,0.6909247659942479,0.007721143,-0.195068725,1.6076410453296401,0.093532544,-0.339076836,-0.106763881,-0.013557251,0.014006490486298769,-0.001193524,-25,0.6805794835090637,0.4560701847076416,2.096190929412842,10.041000366210938,16.58125877380371,91.06199645996094,145.29998779296875,-86.9084497,40.4184019,9.775932062019422,1.5662389038835915,-0.174809635,9.775932062019422,1.5662389038835915,-0.174809635,-51.5836729,-0.825329987,-74.6525309,0.007669691,0.00133141,-0.002109795,Garage
162,8.624789886474609,-30.52952351,-39.28229141,-0.722307052,-0.062950388,0.06635121,0.6854882887922801,0.009703053,-0.182921901,1.623979898599478,0.1862399669793936,-0.480681668,0.040240303,-0.024527867,0.019300424159155227,0.005368408,-18.875,0.6837726831436157,0.7793586850166321,2.1061887741088867,10.034000396728516,16.895305633544922,91.01557159423828,145.29998779296875,-86.9082446,40.4183978,9.885801583817862,1.3138745204337592,-0.055110423,9.885801583817862,1.3138745204337592,-0.055110423,-51.43519901,-0.589503989,-74.86102875,-0.003300925,0.006625343,0.004452137,Garage
163,8.400553817749023,-30.75375937,-38.69620342,-0.729535456,-0.056224751,0.063342288,0.6786655853095563,0.016335462319474775,-0.168806671,1.6443957206114983,0.16354340951419571,-0.429824503,0.0309594,-0.024125502,0.013164351613473292,0.002946003,-19.44444444,0.6958941221237183,0.6191122531890869,2.1161742210388184,10.039999961853027,17.072694778442383,91.00402069091797,145.29998779296875,-86.9080387,40.4183946,9.903890035684826,1.2305177531196076,-0.128225091,9.903890035684826,1.2305177531196076,-0.128225091,-51.65906929,-0.813739982,-74.27640488,-0.002898559,4.892708118824125E-4,0.002029733,Garage
164,9.374235830307008,-30.97091938,-38.70462132,-0.735732392,-0.055584425,0.056726275,0.6725908697230144,0.008803493,-0.158762411,1.661103813393602,0.097969597,-0.477608243,-0.023940386,-0.018100057,0.014018351569866708,-0.004846747,-20.25,0.6121209263801575,0.7810249924659729,2.126178741455078,10.045000076293945,17.058685302734375,90.99975586,145.29998779296875,-86.9078383,40.4183911,9.871038034124282,1.0872416996840135,-0.109997245,9.871038034124282,1.0872416996840135,-0.109997245,-50.68538712,-1.030533986,-74.28433472,0.003126886,0.001343271,-0.005763018,Garage
165,10.470161819458008,-30.83305946,-37.8429353,-0.740724627,-0.044901171,0.052615745,0.6682213562206157,0.018098757602274418,-0.137263999,1.6748576974405827,0.1555768077813306,-0.897530184,-0.05397954,-0.018871029,0.018062990643106656,9.296147827538255E-4,-16.44444444,0.637300432,0.7715568542480469,2.1361591815948486,10.04699993133545,16.85877227783203,90.99391174316406,145.29998779296875,-86.9076373,40.4183862,9.972614005931373,0.458794701,-0.231749519,9.972614005931373,0.458794701,-0.231749519,-49.5897047,-0.892917983,-73.42167274,0.002355913,0.00538791,1.3343935032167191E-5,Garage
166,10.010221767425538,-31.06595739,-38.3349612,-0.74658818,-0.032806424,0.036372212,0.6633635556813583,0.010802377749093723,-0.097426485,1.6893301878160643,0.1705124864300478,-0.587306455,0.10606967073693438,-0.028419224,-3.71E-05,0.001071948,-18,0.6778793334960938,0.34828150272369385,2.1462152004241943,10.055000305175781,16.046655654907227,90.99652099609375,145.29998779296875,-86.9074428,40.4183816,10.07659032711616,0.3798836024406438,-0.004909313,10.07659032711616,0.3798836024406438,-0.004909313,-50.04964508,-1.125449991,-73.91516281,-0.007192282,-0.012712147,1.5567708308401618E-4,Garage
167,10.370243825912475,-31.31325127,-38.93605518,-0.753671602,-0.02093897,0.016778966267276735,0.6566860154994483,-0.002231309,-0.05362181,1.7080468031966571,0.093350244,-0.250660652,-0.034075457,-0.025963974,0.011835907124778599,0.001558254,-17.77777778,0.7061298489570618,0.3606937825679779,2.1561408042907715,10.045999526977539,15.207155227661133,91.93502807617188,145.29998779296875,-86.9072604,40.4183768,10.054237097212411,0.28229789689490664,-0.009620656,10.054237097212411,0.28229789689490664,-0.009620656,-49.68962303,-1.37371998,-74.51564682,-0.004737032,-8.39E-04,6.419826040125804E-4,Garage
168,10.276181831359864,-31.46965527,-38.48843716,-0.759090548,-0.006193317,0.009347068,0.6508643465134704,0.006109559,-0.021563835,1.724060148868746,0.12243125508132491,-0.238848401,-0.029927807,-0.023022418,0.019925185,0.008247921,-16.66666667,0.65418303,0.2408318966627121,2.1662752628326416,10.029000282287598,14.131858825683594,91.99184418,145.29998779296875,-86.9070909,40.4183715,10.23597841355407,-0.02912913,-0.087053442,10.23597841355407,-0.02912913,-0.087053442,-49.78368484,-1.529635983,-74.06705246,-0.001795476,0.007250105,0.00733165,Garage
169,10.36414384841919,-32.2105612,-38.10913937,-0.765596288,0.004958501,-0.002070762,0.6432503662430323,0.003180055,0.010213624894486902,1.7440565595260034,0.032844002,-0.291280551,0.28126784902997315,-0.04695301,0.004886778,0.010020244333225911,-21.625,0.714888871,0.25495097041130066,2.1761653423309326,10.020000457763672,12.704742431640625,91.98733520507812,145.29998779296875,-86.9069379,40.418367,10.27886624938076,-0.393718059,0.24832794817308082,10.27886624938076,-0.393718059,0.24832794817308082,-49.69572292,-2.270663946,-73.68873047,-0.025726067,-0.007788303,0.009103973,Garage
170,11.323307762145996,-34.73095955,-38.48782707,-0.798119825,-0.012992423,-0.035434109,0.6000636069520006,-0.072492021,0.020334098,1.8531414247253566,0.019267452573313297,-0.329489478,1.377520934759992,-0.208542068,-0.035051068,-0.002332191,-26.88888889,0.8698202967643738,0.32557642459869385,2.186161518096924,9.991000175476074,11.00737476348877,93.84320831298828,145.29998779296875,-86.9068002,40.4183614,10.24866267083918,-0.538402516,2.121367957406831,10.24866267083918,-0.538402516,2.121367957406831,-48.73692524,-4.790573909,-74.0679071,-0.187315125,-0.047726149,-0.003248462,Garage
171,12.830007781982422,-40.84023121,-37.16790951,-0.864714741,-0.063778554,-0.094238802,0.4871800131010778,-0.226644902,-0.019431084,2.1130968702649606,0.002313771,-0.068984775,0.27340120829424813,-0.308673574,-0.035893207,0.020310671338856726,-39.25,1.0010852813720703,0.9765244722366333,2.1961605548858643,10.019000053405762,10.184225082397461,103.5018539428711,145.29998779296875,-86.9066881,40.4183466,10.188238060590132,0.135194479,2.6233292829643173,10.188238060590132,0.135194479,2.6233292829643173,-47.22985897,-10.90033377,-72.74811043,-0.287446631,-0.048568288,0.019394400317077207,Garage
172,12.311507768630982,-48.34201118,-34.02909321,-0.928235404,-0.107550492,-0.127848688,0.325976981,-0.314319516,-0.11891493,2.4471779633494255,-0.113018193,-0.093772792,0.4817468934846156,-0.437497111,-0.085235432,-0.003043858,-25.44444444,1.0202218294143677,0.363593191,2.206134319,10.015999794006348,8.089245796203613,122.02855682373047,145.29998779296875,-86.9066054,40.4183138,9.830203269,1.1570429952399244,3.7139598628849657,9.830203269,1.1570429952399244,3.7139598628849657,-47.74835926,-18.40186969,-69.60892883,-0.416270168,-0.097910512,-0.003960129,Garage
173,12.557093753814698,-56.03581894,-28.00534346,-0.968029839,-0.135041811,-0.168075405,0.11158607508173411,-0.372860439,-0.226882506,2.8693052750189327,0.2416948207373758,-0.438762709,0.20961931839729975,-0.467932723,-0.068001237,-0.010172386,-18.5,1.157920002937317,0.9808160066604614,2.216163158416748,10.039999961853027,7.248977184295654,138.80628967285156,145.29998779296875,-86.9065497,40.418261,9.735348527248089,1.9271655569855983,3.928597773496921,9.735348527248089,1.9271655569855983,3.928597773496921,-47.50228519,-26.09543339,-63.58676498,-0.44670578,-0.080676317,-0.011088657,Garage
174,12.697515716552735,-57.56887089,-21.64621561,0.8909821012645092,0.13816475058064878,0.1703708249967075,0.083895384,-0.357357715,-0.325895223,-1.869178131,-0.065005339,-0.542553376,0.27617740862577866,-0.392673969,-0.052368291,-0.026398387,-8.666666667,1.1179982423782349,1.3360015153884888,2.2261698246002197,10.107999801635742,6.567262172698975,171.99766540527344,145.29998779296875,-86.9065294,40.4181922,9.180368997518299,2.7853355847516106,3.721373537211742,9.180368997518299,2.7853355847516106,3.721373537211742,-47.36271713,-27.62860743,-57.22812489,-0.371447026,-0.065043372,-0.027314658,Garage
175,11.407243757247924,-54.54412491,-15.4626457,0.9447289224967216,0.1249395390448061,0.19336739413946577,0.23017882157876654,-0.33216112,-0.331288072,-2.719707457,0.12224608486138501,-0.478211151,0.24443286367990438,-0.328967936,-0.018896234,-0.012473442,-14.44444444,0.9970922470092773,1.0317461490631104,2.2362656593322754,10.144000053405762,8.382560729980469,195.08531188964844,145.29998779296875,-86.9065519,40.4181102,9.371475349352197,2.8929574234971724,3.429608905199662,9.371475349352197,2.8929574234971724,3.429608905199662,-48.65274506,-24.60434958,-51.04321301,-0.307740994,-0.031571315,-0.013389713,Garage
176,10.739659805297851,-51.21730698,-11.03550974,0.9193412036571688,0.11599126530503764,0.1714587120465862,0.3336887547692049,-0.254690336,-0.333318106,-2.48842478,0.13447995787685357,-0.343988689,-0.514556151,-0.184938455,0.002453768,0.004120254,-9.25,0.9131889343261719,0.7355270385742188,2.246150255203247,10.130999565124512,10.49417495727539,210.33006286621094,145.29998779296875,-86.906614,40.4180229,9.556318042347732,3.0221059692716135,1.9249967831431083,9.556318042347732,3.0221059692716135,1.9249967831431083,-49.32045101,-21.27753159,-46.61583324,-0.163711513,-0.010221313,0.003203983,Garage
177,9.82734375,-49.33252903,-8.949065781,0.9072518010552113,0.1228592314112645,0.1444937209956921,0.37529042993600553,-0.181172256,-0.337690192,-2.388138592,-0.026037876,-0.402766865,-0.913270592,-0.085553858,0.012310921815067278,-0.004228943,-15.22222222,0.8683810830116272,0.6506919264793396,2.256199359893799,10.13700008392334,12.211118698120117,218.3917694091797,145.29998779296875,-86.9067091,40.4179324,9.427901263375885,2.978294654957299,0.8112510928829897,9.427901263375885,2.978294654957299,0.8112510928829897,-50.23252316,-19.39202162,-44.52938904,-0.064326915,-3.64E-04,-0.005145214,Garage
178,9.858941812515258,-49.11439289,-8.488637867,0.9086033400980015,0.12938200798138833,0.11316949852461954,0.38016507434613495,-0.113634452,-0.3270031,-2.367963302,0.098237056,-0.386733879,-1.284999343,-0.015751556,0.025511769,0.004748893,-20.25,0.8531774878501892,0.5731492042541504,2.266106128692627,10.121999740600586,13.844508171081543,222.27777099609375,145.29998779296875,-86.9068275,40.4178386,9.609985212677891,2.8630326164578928,-0.199347681,9.609985212677891,2.8630326164578928,-0.199347681,-50.20129112,-19.17437366,-44.06786282,0.005475386,0.012836688206060926,0.003832622,Garage
179,8.494249835014344,-51.365415,-7.959889846,0.9192745853396296,0.1291722600321168,0.057839624656056896,0.3670688803913524,-0.011955906,-0.28388829,-2.383560989,0.1274271381711497,-0.721354966,-0.919979993,0.013640278692637543,0.032486103,0.001166837,-19.88888889,0.8054017424583435,0.532634974,2.276125192642212,10.10200023651123,14.999197959899902,222.09507751464844,145.29998779296875,-86.9069574,40.4177384,9.721870024227401,2.0789156781816946,-0.805202244,9.721870024227401,2.0789156781816946,-0.805202244,-51.56573906,-21.42527355,-43.54009121,0.034867221,0.019811022,2.505658143561659E-4,Garage
180,9.442311811447144,-52.29956879,-9.005063839,0.9334205522120578,0.13596829135441085,0.022508163,0.3305633661237735,0.049761673,-0.272516857,-2.454081489,0.031356543,-0.012646652,-1.060558892,0.057431503,0.028310991,-5.89E-04,-7.25,0.6776261329650879,0.191049725,2.2861125469207764,10.053999900817871,15.984034538269043,220.08644104003906,145.29998779296875,-86.907087,40.4176313,9.612768063178429,2.671137821,-1.535844145,9.612768063178429,2.671137821,-1.535844145,-50.61779911,-22.35991547,-44.58502117,0.078658446,0.015635911,-0.001504879,Garage
181,10.709159784317016,-52.25564888,-10.66316574,0.947095009,0.1466163595035238,-0.001747584,0.2852401799947313,0.090585626,-0.280433751,-2.543735731,0.19147512287769503,-0.069635803,-0.338039662,0.034954696473240565,0.016722685,0.009896615,-9.666666667,0.6786770820617676,0.6576473116874695,2.2961344718933105,10.03600025177002,16.67070960998535,217.1141357421875,145.29998779296875,-86.9072154,40.4175121,9.758758383,2.693888528,-1.192061271,9.758758383,2.693888528,-1.192061271,-49.35034092,-22.31611755,-46.24361126,0.056181639,0.004047604,0.008980344,Garage
182,12.75070774078369,-51.07139484,-13.17026573,0.9540431077040515,0.15140509735612037,0.002456039,0.25851897851934713,0.076954198,-0.294384992,-2.600955553,0.3311817622879176,-0.180461395,0.37450702792232476,-0.008919556,0.007589629,0.023940171459825365,-15.33333333,0.6414303779602051,0.5099999904632568,2.3061137199401855,10.027999877929688,17.727027893066406,213.67535400390625,145.29998779296875,-86.9073371,40.4173807,9.942111316236478,2.746687421520937,-0.372139097,9.942111316236478,2.746687421520937,-0.372139097,-47.30903694,-21.13149759,-48.75022316,0.012307386158160794,-0.005085452,0.023023900399052367,Garage
183,-3.569597964,-44.17937117,-22.65442342,0.958057048,0.14985131624254208,0.007441697,0.2440947966957555,0.061611609262170144,-0.295021338,-2.633475741,-0.027215046,-0.279227173,0.46524727662790166,-0.021373724,0.013449018504651427,-0.002545691,-13.5,0.5872096419334412,0.2475883662700653,2.316195249557495,10.010000228881836,18.848934173583984,212.0015869140625,145.29998779296875,-86.9074595,40.417238,9.566609452071699,2.646075634123052,-0.127978261,9.566609452071699,2.646075634123052,-0.127978261,-63.62934303,-14.23983974,-58.2342588,-1.47E-04,7.739373656821628E-4,-0.003461962,Garage
184,-4.220711912,-67.39731266,-29.90537143,0.9626885715585488,0.14860434386019522,0.008926853,0.2259028677183848,0.052230966,-0.29439309,-2.672868988,0.088982564,-0.237649723,0.3577850188773412,-0.022389901,0.017902524,0.008246438,-12,0.5278841853141785,0.7627581357955933,2.326152801513672,10.015000343322754,19.615083694458008,212.00430297851562,145.29998779296875,-86.9075813,40.4170925,9.727907236339977,2.6825313197756278,-0.142695283,9.727907236339977,2.6825313197756278,-0.142695283,-64.28082264,-37.45692713,-65.48606068,-0.001162959,0.005227443,0.007330167,Garage
185,16.886507558822633,-60.60593872,-9.918477821,0.9668016213815189,0.14384897617460454,0.010237102,0.21088307965727685,0.042650325,-0.286350835,-2.705906743,0.084944679,-0.618459335,0.2668106053928727,-0.020294362,0.002999379,-0.001727275,-16.375,0.5240585207939148,1.2788275480270386,2.3361940383911133,10.06000042,20.288328170776367,212.0104217529297,145.29998779296875,-86.9077095,40.4169406,9.710797342281897,2.218500869656072,-0.143970098,9.710797342281897,2.218500869656072,-0.143970098,-43.17360325,-30.6659194,-45.49867905,9.325799019103056E-4,-0.009675702,-0.002643546,Garage
186,12.905037770271301,-55.89856899,-10.50590785,0.9707152392100362,0.13427197918729875,0.012990811532272876,0.19872986691669353,0.029214564620435816,-0.269075128,-2.733763086,-0.115234375,-0.364486449,0.12954322646543817,-0.016226001,0.013650657,-0.003980886,-9.444444444,0.5589820146560669,0.854283333,2.3461344242095947,10.071000099182129,20.607540130615234,212.00205993652344,145.29998779296875,-86.9078446,40.4167816,9.528405634,2.2960788578663056,-0.152278188,9.528405634,2.2960788578663056,-0.152278188,-47.15495098,-25.95879356,-46.08598724,0.005000941,9.75576367283475E-4,-0.004897157,Garage
187,11.420785765647889,-56.50905674,-10.62083185,0.9737844698637435,0.13193011746823208,0.011984601761530904,0.1848393954987665,0.026352447,-0.264451253,-2.762922852,0.018617399,-0.182387567,0.037879725,-0.01418589,0.008846907,0.004321893,-8.625,0.5238083600997925,0.3996248245239258,2.356118679046631,10.067999839782715,20.99924087524414,212.00045776367188,145.29998779296875,-86.9079801,40.4166234,9.667874895609343,2.4349041157043896,-0.214358946,9.667874895609343,2.4349041157043896,-0.214358946,-48.63810528,-26.56928154,-46.20078907,0.007041052,-0.003828174,0.003405622,Garage
188,11.362713766098022,-54.91793308,-11.77482972,0.9764148234163673,0.12921789143849344,0.011963888008183645,0.1725197210184579,0.021963002,-0.259361626,-2.788961924,0.096002153,-0.170922563,0.19518649028342905,-0.021480473,0.010637934719216873,0.002412254,-8.333333333,0.471277118,0.35510560870170593,2.3661417961120605,10.053999900817871,21.44930076599121,212.00039672851562,145.29998779296875,-86.9081146,40.4164649,9.741541029180137,2.384700407,-0.019836616,9.741541029180137,2.384700407,-0.019836616,-48.6971529,-24.97766951,-47.35442142,-2.54E-04,-0.002037146,0.001495983,Garage
189,11.200087747573853,-54.74896286,-11.47019579,0.9783038016661857,0.12673076061369146,0.012969501705351964,0.16335700828473546,0.01656705,-0.254950986,-2.808561443,-0.020753296,-0.129372938,0.20273197160183803,-0.024943918,0.013282962790486918,-0.00103933,-8.625,0.49374380707740784,0.39661064743995667,2.3761415481567383,10.057999610900879,21.86919593811035,212.00047302246094,145.29998779296875,-86.9082546,40.4162988,9.639671835,2.3893582867187204,0.048887341043649654,9.639671835,2.3893582867187204,0.048887341043649654,-48.86026722,-24.80906559,-47.05088493,-0.003716976,6.078819029973548E-4,-0.001955601,Garage
190,10.948767805099488,-54.83582703,-10.96779974,0.9799067395404705,0.1251664014840589,0.014194397744044516,0.1546202843050355,0.011245655682552787,-0.252364822,-2.827164907,-0.031236977,-0.11419751,0.16565269325832718,-0.025952113,0.016971769,8.465868168854091E-4,-8.777777778,0.4835977852344513,0.3860051929950714,2.3862130641937256,10.020999908447266,22.309200286865234,212.0004425048828,145.29998779296875,-86.9083967,40.4161299,9.624124351057034,2.374086609164488,0.050664537,9.624124351057034,2.374086609164488,0.050664537,-49.11170898,-24.89592955,-46.54836704,-0.00472517,0.004296688,-6.97E-05,Garage
191,10.975851774215698,-54.8655949,-10.3504798,0.9812824783416895,0.12423365398381765,0.009495197,0.146808446,0.018414322,-0.249170692,-2.842269781,0.095393956,-0.070546139,0.1250024727330758,-0.025538114,0.015141964041014524,0.003723819,-9.222222222,0.47388941049575806,0.39661064743995667,2.396075487136841,10.017999649047852,22.699405670166016,212.99888610839844,145.29998779296875,-86.9085397,40.4159607,9.737240374666973,2.3847555813280126,-0.049819497,9.737240374666973,2.3847555813280126,-0.049819497,-49.08450306,-24.92545355,-45.93080311,-0.004311172,0.002466883,0.002807548,Garage
192,10.681831831932067,-54.93257305,-10.22579581,0.9824720412782095,0.12313502252969927,0.010133921385751766,0.1395633424659377,0.014913707031208335,-0.247296773,-2.857520638,-0.029928559,-0.125656282,0.060098299,-0.023295224,0.013164351662638987,-6.67E-05,-10.625,0.4310730993747711,0.9128526449203491,2.4061474800109863,10.017999649047852,23.11634063720703,213.00270080566406,145.29998779296875,-86.9086868,40.415791,9.624612155469876,2.312047459546802,-0.083902697,9.624612155469876,2.312047459546802,-0.083902697,-49.37815681,-24.99267553,-45.8056311,-0.002068281,4.892708265756085E-4,-9.83E-04,Garage
193,11.303299808502198,-54.67917904,-10.42831578,0.9839158955129604,0.12118149042418859,0.008632594,0.1309280324618793,0.015195453521406766,-0.243116194,-2.87515394,0.044224244,-0.16564561,-0.048608944,-0.018289835,0.014231851691203825,9.058924189551725E-4,-12.88888889,0.42600107192993164,0.9479451179504395,2.4162473678588867,10.041999816894531,23.367631912231445,213.0017547607422,145.29998779296875,-86.908837,40.4156171,9.705012830715734,2.2307350415627933,-0.195427401,9.705012830715734,2.2307350415627933,-0.195427401,-48.75693295,-24.73891556,-46.00790714,0.002937108,0.001556771,-1.04E-05,Garage
194,11.194597778320313,-54.5283868,-10.4960258,0.9854215273579348,0.11887233530722775,0.006129292,0.12152733791221693,0.017304976968076622,-0.238011528,-2.894111895,0.032975400535805714,-0.190692089,-0.040430499,-0.018230529,0.012737351599108717,0.001060087,-12.25,0.4589630961418152,1.0117806196212769,2.4261512756347656,10.071999549865723,23.627229690551758,213.00198364257812,145.29998779296875,-86.9089908,40.4154378,9.702418400691105,2.1616851824980516,-0.208385517,9.702418400691105,2.1616851824980516,-0.208385517,-48.86551308,-24.58848957,-46.07586121,0.002996413,6.227082464373806E-5,1.438159367874337E-4,Garage
195,11.231929750442506,-54.28487495,-10.92583178,0.9866144321497204,0.11651197661763256,0.006088618,0.11391228242117224,0.014938268385538198,-0.233404128,-2.909942699,-0.01605476,-0.1463369,0.19743820764486072,-0.028383641,0.011835907035489177,-0.001229108,-11.66666667,0.4651862680912018,0.5879625678062439,2.4361536502838135,10.067000389099121,23.86909294128418,213.0005645751953,145.29998779296875,-86.9091457,40.4152558,9.666939665970293,2.1443175563534487,0.058870986,9.666939665970293,2.1443175563534487,0.058870986,-48.82757103,-24.34448956,-46.50615524,-0.007156698,-8.39E-04,-0.002145379,Garage
196,11.407121772766112,-53.92692688,-10.46235387,0.9872261175831545,0.113116461,0.009955073,0.11174191794927837,0.005772865,-0.227527076,-2.915513849,-0.015920852,-0.164629841,0.5701974941399491,-0.047705392,0.013128768289303497,-0.001620524,-13.875,0.4304797351360321,0.8246211409568787,2.446192502975464,10.098999977111816,24.16783905029297,213.00149536132812,145.29998779296875,-86.9093022,40.415076,9.650053385391976,2.0790463535531054,0.5149824765275766,9.650053385391976,2.0790463535531054,0.5149824765275766,-48.65311115,-23.9867856,-46.04194519,-0.02647845,4.5368753405269777E-4,-0.002536795,Garage
197,11.61122778892517,-53.31656094,-9.642879753,0.9875989209101038,0.1083135676470775,0.018604704956478865,0.1120086034524788,-0.012787732,-0.219875874,-2.917127304,0.113239821,-0.081471234,0.3227790309459839,-0.051643281,0.017825768637760243,0.004025365,-13.22222222,0.4656449556350708,0.5580322742462158,2.4562063217163086,10.085000038146973,24.369918823242188,214.99484252929688,145.29998779296875,-86.9094666,40.4148922,9.755325942363553,2.0737118605271125,0.4428696551052763,9.755325942363553,2.0737118605271125,0.4428696551052763,-48.44876087,-23.37617556,-45.22186111,-0.030416339,0.005150688,0.003109094,Garage
198,10.81261579990387,-53.01217102,-9.134871807,0.986890693,0.10742203912769373,0.025285034,0.11770962400791737,-0.025227094,-0.219756047,-2.906951244,0.11329522499671349,-0.106662165,0.28758071033427346,-0.053484376,0.003794301,0.003653336,-11.66666667,0.45465633273124695,0.5456188917160034,2.466153621673584,10.07699966430664,24.47992515563965,215.99742126464844,145.29998779296875,-86.9096376,40.4147142,9.796091019528584,2.055562419798768,0.5360648706213467,9.796091019528584,2.055562419798768,0.5360648706213467,-49.24737297,-23.07239553,-44.715317,-0.032257434,-0.008880779,0.002737066,Garage
199,10.91765781402588,-52.67764698,-8.927837811,0.986150424,0.10677146246132341,0.029480697,0.12341354129094521,-0.032578338,-0.219629436,-2.896188208,0.14152548151108826,-0.101643587,0.16447656695703858,-0.049781086,-7.26E-05,0.004262587,-11.75,0.45011502504348755,0.20518285036087036,2.4762253761291504,10.03499984741211,24.54994773864746,217.9986114501953,145.29998779296875,-86.9098166,40.4145393,9.830275822611688,2.062363386154175,0.48027493142821254,9.830275822611688,2.062363386154175,0.48027493142821254,-49.14233112,-22.73787151,-44.5070631,-0.028554144,-0.01274773,0.003346316,Garage
200,10.301191749572753,-52.39155712,-9.327143831,0.9858984999286319,0.10552417935387602,0.034238152,0.12528165097086175,-0.042081111,-0.218382565,-2.893413738,-0.065979059,-0.117877562,-0.217274009,-0.033222975,2.120174699264027E-4,-8.38E-04,-12.77777778,0.4161284863948822,0.5403702259063721,2.486117362976074,10.032999992370605,24.64999771118164,219.9944610595703,145.29998779296875,-86.9099992,40.4143734,9.628909972107525,2.0355428561423587,0.19094376045378667,9.628909972107525,2.0355428561423587,0.19094376045378667,-49.75855297,-22.45129351,-44.90649105,-0.011996032,-0.012463063,-0.001753962,Garage
201,10.369267807006835,-52.27699913,-9.51526782,0.9868130788062383,0.10349726807145239,0.030397911,0.12064790400197205,-0.035839017,-0.213219493,-2.902117264,0.078730259,-0.069455222,-0.402446233,-0.023449418,0.013994629,2.6539238158486856E-4,-12,0.4148106575012207,0.3801315426826477,2.4961321353912354,10.02299976348877,24.72992515563965,220.9984893798828,145.29998779296875,-86.9101913,40.4142068,9.765565094438571,2.029209427463198,-0.05512204,9.765565094438571,2.029209427463198,-0.05512204,-49.69059902,-22.33746765,-45.09546906,-0.002222476,0.001319549,-6.51E-04,Garage
202,10.595333800315856,-52.13364895,-9.394731836,0.9875070927212539,0.10391069087878015,0.025669399,0.11562305630989445,-0.027286929,-0.212766585,-2.911396797,0.067707534,-0.062048648,-0.154408843,-0.02901228,0.008918074,0.004143976,-12.11111111,0.44352588057518005,0.5420331954956055,2.506138801574707,10.012999534606934,24.789825439453125,221.0000457763672,145.29998779296875,-86.9103905,40.4140359,9.783601806713985,2.0397863880946088,0.10874401047644475,9.783601806713985,2.0397863880946088,0.10874401047644475,-49.46502098,-22.19350756,-44.97493298,-0.007785337,-0.003757007,0.003227705,Garage
203,11.003423738479615,-52.21014301,-9.501237831,0.9881106065314951,0.10436682120978254,0.019204074119045896,0.11122466725053139,-0.015074692,-0.212115555,-2.919014537,0.066664483,-0.059086851,-0.185100159,-0.024374585,0.012179879332639422,0.004914948,-11.625,0.41068699955940247,0.5200961232185364,2.5161526203155518,10.01099967956543,24.799970626831055,221.00001525878906,145.29998779296875,-86.9105835,40.4138709,9.831234135674041,2.0422218656076967,-0.043306024,9.831234135674041,2.0422218656076967,-0.043306024,-49.0568092,-22.26963539,-45.08021908,-0.003147643,-4.95E-04,0.003998677,Garage
204,10.438807792663575,-52.63104298,-9.15951582,0.9888090184591349,0.10509990126762575,0.013190453745497084,0.10502791925541406,-0.004101589,-0.212212293,-2.93038955,0.058356136951631714,-0.069301588,-0.19336706,-0.020021557,0.014101379483743815,0.005092865,-11.22222222,0.4096582531929016,0.3400000035762787,2.5261127948760986,10.00100040435791,24.809986114501953,221,145.29998779296875,-86.9107777,40.4137051,9.830107438911512,2.0400032638346106,-0.145192644,9.830107438911512,2.0400032638346106,-0.145192644,-49.62130299,-22.69090151,-44.73922913,0.001205385,0.001426299,0.004176594,Garage
205,10.651697797775268,-52.80538101,-8.336381812,0.9896157378187547,0.10439543748417726,0.005805724,0.098595915,0.009300641,-0.209298524,-2.942012727,-0.035250875,-0.037807286,-0.054902556,-0.0191947,0.015212446323578032,-7.28E-04,-11.375,0.43998804688453674,0.6579513549804688,2.5361456871032715,10.015999794006348,24.750253677368164,220.99993896484375,145.29998779296875,-86.9109765,40.4135351,9.700421648118102,2.0261951754394087,-0.148706377,9.700421648118102,2.0261951754394087,-0.148706377,-49.40829105,-22.86560558,-43.915485,0.002032242,0.002537366,-0.001644589,Garage
