seconds_elapsed,orientation_qz,orientation_qy,orientation_qx,orientation_qw,orientation_roll,orientation_pitch,orientation_yaw,magnetometer_z,magnetometer_y,magnetometer_x,microphone_dBFS,totalAcceleration_z,totalAcceleration_y,totalAcceleration_x,gyroscopeUncalibrated_z,gyroscopeUncalibrated_y,gyroscopeUncalibrated_x,accelerometerUncalibrated_z,accelerometerUncalibrated_y,accelerometerUncalibrated_x,gyroscope_z,gyroscope_y,gyroscope_x,location_bearingAccuracy,location_speedAccuracy,location_verticalAccuracy,location_horizontalAccuracy,location_speed,location_bearing,location_altitude,location_longitude,location_latitude,accelerometer_z,accelerometer_y,accelerometer_x,magnetometerUncalibrated_z,magnetometerUncalibrated_y,magnetometerUncalibrated_x,class
0,0.9993807703633851,-0.010150457,0.031657086331633076,0.011521359210055841,-0.063563838,0.019560117463145076,-3.117914794,-53.45481312,-13.77085993,-3.013546903,-135.625,9.895570968179142,-0.196609086,0.6284185718087589,-0.020892522,0.015679057581420942,2.3776649635968896E-4,9.895757472515106,-0.196121725,0.6288038864731789,4.871313583954603E-4,-5.08E-04,2.3776649635968896E-4,45,1.5,1,11.479999542236328,0,0,160.1999969482422,-86.9155082,40.3848558,2.623207961456685E-5,-0.002176877,-8.98E-04,-115.0060841,29.85249568797924,-31.34511293,Home
1,0.999373617,-0.010391943,0.031712028,0.011773026991382387,-0.063684777,0.020025525712272497,-3.117395031,-53.41184319,-13.74329974,-3.107217929,-110.875,9.871456183,-0.200529572,0.6289435601928859,-0.020923001,0.015773796,4.0031250710915594E-5,9.871456183,-0.200529572,0.6289435601928859,4.5665280522724376E-4,-4.14E-04,4.0031250710915594E-5,45,1.5,1,11.479999542236328,0,0,160.1999969482422,-86.9155082,40.3848558,-0.011664428,-0.002473432,-0.001364814,-114.9719434,29.878165512084962,-31.42866337,Home
2,0.999369299,-0.010502436,0.031881974268596146,0.011585659609691611,-0.064023947,0.020254252496564273,-3.117759126,-53.43587692,-13.75818372,-3.063785918,-144.2222222,9.871162952,-0.200610881,0.63004995,-0.021029751,0.015678907419075665,1.4678125825791973E-4,9.871162952,-0.200610881,0.63004995,3.499027988104855E-4,-5.09E-04,1.4678125825791973E-4,45,1.5,1,11.479999542236328,0,0,160.1999969482422,-86.9155082,40.3848558,2.654455240490367E-4,-1.80E-04,-0.002664716,-114.9956122,29.86120750427246,-31.38254738,Home
3,0.9993813840242532,-0.010307407,0.031701927,0.011202481646950428,-0.063651181,0.019893059,-3.118541408,-53.38463692,-13.78441369,-3.051097934,-144.125,9.917741618110139,-0.194036427,0.6284702252415777,-0.021179953,0.015882029,3.52411868964107E-5,9.917741618110139,-0.194036427,0.6284702252415777,1.9970006542280316E-4,-3.05E-04,3.52411868964107E-5,0,0.18439088761806488,1.0274441242218018,13.57800006866455,0.044733528047800064,0,160.1999969482422,-86.9155117,40.3848561,0.023334301435030423,0.003015579,-0.001931885,-114.9441277,29.83570945739746,-31.37034744,Home
4,0.9993929886123509,-0.010103409,0.031593896882626614,0.010646905379315603,-0.063419166,0.01952302,-3.119667421,-53.31180271,-13.72182777,-3.069641917,-134.5555556,9.937200870328736,-0.19317687,0.6294227063077168,-0.021219528,0.016058463,-4.30E-05,9.937200870328736,-0.19317687,0.6294227063077168,1.6012500962513744E-4,-1.29E-04,-4.30E-05,45,0.15556348860263824,1.037537693977356,12.055000305175781,1.185073971748352,13.475727081298828,160.1999969482422,-86.9155053,40.3848749,0.011051492783629779,9.135851292934233E-4,-8.18E-04,-114.8715377,29.898783378601074,-31.39084343,Home
5,0.9993977106890632,-0.010042436,0.031531054,0.010447610757376963,-0.063288129,0.019415144,-3.120071004,-53.38793076,-13.77331173,-3.032797925,-142.375,9.929990435109556,-0.193246564,0.6289580828935197,-0.021314417,0.016117769,6.375347605445287E-5,9.929990435109556,-0.193246564,0.6289580828935197,6.52361150324634E-5,-6.97E-05,6.375347605445287E-5,45,0.1063014566898346,1.0474129915237427,10.95199966430664,0.8276092410087585,181.9645538330078,160.1999969482422,-86.915508,40.384856,-0.004064615,-7.71E-05,-4.79E-04,-114.9471782,29.846079444885255,-31.35119333,Home
6,0.9993925829535549,-0.010274984,0.031571039,0.010589483,-0.063376271,0.019870149966293167,-3.119771724,-53.36243301,-13.82186769,-3.054757926,-157.1111111,9.886797580904174,-0.199286699,0.6284005265791439,-0.021492334,0.016177074115687202,-1.62E-04,9.886797580904174,-0.199286699,0.6284005265791439,-1.13E-04,-1.04E-05,-1.62E-04,45,0.092195444,1.0574103593826294,9.579999923706055,1.4498165845870972,121.86517333984375,160.1999969482422,-86.9154828,40.3848495,-0.020362965,-0.002126341,-2.08E-04,-114.9225336,29.799231395721435,-31.37412931,Home
7,0.9993846590079151,-0.010459926,0.031625016511065286,0.010988122874020952,-0.063496609,0.020213352823720394,-3.118961783,-53.40452293,-13.77099373,-3.059881954,-150.8888889,9.876697430243858,-0.199777682,0.6283460311018504,-0.021338139,0.016188935222990305,-1.14E-04,9.876697430243858,-0.199777682,0.6283460311018504,4.151389138429489E-5,1.4826621480503128E-6,-1.14E-04,45,0.086023256,1.0674617290496826,8.673000336,1.2242650985717773,132.93646240234375,160.1999969482422,-86.9154749,40.3848416,-0.006899667,3.6499497381228845E-4,9.824928728122156E-5,-114.9647456,29.849007377624513,-31.37961939,Home
8,0.9993862932168164,-0.010495948,0.031628391,0.010793915931677934,-0.063500283,0.020297617497808725,-3.119347716,-53.44429504,-13.79246572,-3.110999935,-157.25,9.879107882675616,-0.201075507,0.6273783578456027,-0.021361862,0.016046601890143262,4.447915803785753E-6,9.879107882675616,-0.201075507,0.6273783578456027,1.779166773612638E-5,-1.41E-04,4.447915803785753E-6,45,0.086023256,1.0774095058441162,8.102999687194824,0.538934588,146.72959899902344,160.1999969482422,-86.915476,40.3848398,7.448566770090641E-4,-2.97E-04,-6.87E-04,-115.0040296,29.82680341720581,-31.43098125,Home
9,0.999386016,-0.010520439,0.031637824384622204,0.010767815634608269,-0.063519209,0.020348021543575723,-3.119398147,-53.39756889,-13.82796773,-3.141621952,-147.6666667,9.885798528,-0.200634112,0.62863284,-0.021385584,0.016094046373607465,-9.04E-05,9.885798528,-0.200634112,0.62863284,-5.93E-06,-9.34E-05,-9.04E-05,45,0.086023256,1.0874743461608887,6.327000141143799,0.773293138,109.44869232177734,160.1999969482422,-86.915464,40.3848386,0.002749619,8.030509196438835E-4,2.4086294822322512E-4,-114.9576694,29.79191135406494,-31.46221325,Home
10,0.9993868354454781,-0.010539371,0.031662141,0.010600773563373436,-0.063564915,0.020395942,-3.119730412,-53.37548676,-13.77758171,-3.06402992,-158.125,9.890584316068482,-0.201447208,0.6297247114690762,-0.021492334,0.016188935304368005,-1.97E-04,9.890584316068482,-0.201447208,0.6297247114690762,-1.13E-04,1.4826519758377261E-6,-1.97E-04,45,0.086023256,1.097406029701233,5.642000198364258,0.6439315676689148,93.31452941894531,160.1999969482422,-86.9154571,40.3848396,0.003341008,5.056451535919338E-4,3.525684180768948E-4,-114.9357101,29.841809463500976,-31.38315744,Home
11,0.9993943826666156,-0.010415932,0.031533212373846944,0.010391333827622307,-0.063299848,0.020165245148163397,-3.12015967,-53.38671112,-13.7601357,-3.050731933,-126.4444444,9.928009913,-0.197088437,0.6268527464380542,-0.021421167,0.016497324,-1.62E-04,9.928009913,-0.197088437,0.6268527464380542,-4.15E-05,3.0987155883690544E-4,-1.62E-04,45,0.086023256,1.1075547933578491,5.887000084,0.9416711330413818,94.99700164794922,160.1999969482422,-86.9154443,40.3848387,0.020223395338336243,0.002061111,5.551420369194549E-5,-114.9474217,29.860109405517576,-31.37107933,Home
12,0.9993697192806464,-0.010302773,0.032102714149424665,0.011097729519511072,-0.064450998,0.019881118,-3.118743184,-53.40269295,-13.77026172,-3.107095935,-138.625,9.946478852947939,-0.195677137,0.6435328102806239,-0.021461883,0.014472381,-2.35E-04,9.946478852947939,-0.195677137,0.6435328102806239,-8.22E-05,-0.001715071,-2.35E-04,45,0.086023256,1.117380976676941,5.681000232696533,0.5717449188232422,17.923452377319336,160.1999969482422,-86.9154489,40.3848476,0.009048398,0.003128342,0.001116419,-114.96255,29.84973943710327,-31.42585745,Home
13,0.9993586835351963,-0.010275317,0.03227544,0.011615331510750993,-0.064806215,0.019788961333123224,-3.117706653,-53.39305511,-13.8112537,-3.066103935,-143.6666667,9.933800345,-0.195685849,0.6451270562931172,-0.021350001,0.016129629677432835,-3.11E-05,9.933800345,-0.195685849,0.6451270562931172,2.9652779560210635E-5,-5.78E-05,-3.11E-05,45,0.10000000149011612,1.1275219917297363,5.607999801635742,0.4634020924568176,25.983888626098633,160.1999969482422,-86.9154462,40.3848506,-0.00340571,0.001286644,3.5102679891493713E-4,-114.9527899,29.808869438171385,-31.38632938,Home
14,0.9993536263993643,-0.010214351,0.032334265163511906,0.011936464708623955,-0.064928703,0.019644840249737488,-3.117067409,-53.40635273,-13.76830969,-3.107949934,-157.25,9.936515623,-0.194384896,0.6462189288972651,-0.021326278,0.016082185,-1.93E-05,9.936515623,-0.194384896,0.6462189288972651,5.337500320837914E-5,-1.05E-04,-1.93E-05,45,0.10000000149011612,1.1375354528427124,5.439000129699707,1.5452977418899536,295.6478271484375,160.1999969482422,-86.9154751,40.3848581,7.239591728136378E-4,0.001126215,3.127710333148253E-4,-114.9668198,29.85144739151001,-31.42780937,Home
15,0.9993538954882946,-0.01017878,0.032328968,0.011958630158773903,-0.064917623,0.019572432,-3.117025533,-53.36340885,-13.74915576,-3.008275921,-162.6666667,9.936100293131707,-0.194454591,0.6460795385166279,-0.021290695,0.016058463033614228,-1.93E-05,9.936100293131707,-0.194454591,0.6460795385166279,8.89583386806319E-5,-1.29E-04,-1.93E-05,45,0.1345362365245819,1.147487998008728,5.2729997634887695,0.9584071636199951,307.10137939453125,160.1999969482422,-86.9154792,40.3848628,-2.47E-04,3.459566426508635E-4,2.479368043177336E-4,-114.9237534,29.870601482391358,-31.32911131,Home
16,0.999352825,-0.010207162,0.032313557974632506,0.012064849975907687,-0.064889595,0.019622646,-3.116811593,-53.39024914,-13.7933197,-3.101117938,-160.8888889,9.933069788492643,-0.195130085,0.6440374186405768,-0.021361862,0.016129629668390866,-1.38E-04,9.933069788492643,-0.195130085,0.6440374186405768,1.779166773612638E-5,-5.78E-05,-1.38E-04,45,0.10000000149011612,1.1070815324783325,4.204999923706055,0.5107415914535522,291.722168,160.1999969482422,-86.9154826,40.3848622,-0.001072152,2.4519441197219405E-4,-0.001306883,-114.94974,29.82546142578125,-31.42036737,Home
17,0.9993556402261975,-0.010240848,0.032277492,0.011898086361080697,-0.064815016,0.019701680041921948,-3.117143538,-53.39390896,-13.80808172,-3.05060993,-161.875,9.931610718514156,-0.194524284,0.6451502876374328,-0.021302556,0.016082185212052562,-7.86E-05,9.931610718514156,-0.194524284,0.6451502876374328,7.709722685654765E-5,-1.05E-04,-7.86E-05,45,0.092195444,1.1170668601989746,3.9769999980926514,0.21378108859062195,23.34122085571289,160.1999969482422,-86.9154772,40.384864,-0.001267739,0.001354541,5.67021879177649E-4,-114.9540095,29.811675567626953,-31.37144537,Home
18,0.999348548,-0.01027986,0.032346297,0.012268356535836909,-0.064961028,0.019753936877094425,-3.116399307,-53.35767487,-13.80966779,-3.061467924,-161.5555556,9.917578947196887,-0.196893876,0.6448947440073328,-0.021302556,0.016200796348377337,-5.49E-05,9.917578947196887,-0.196893876,0.6448947440073328,7.709722685654765E-5,1.3343772276765802E-5,-5.49E-05,45,0.1140175461769104,1.1270418167114258,3.9639999866485596,0.14781256020069122,57.40327453613281,160.1999969482422,-86.9154755,40.384864,-0.006225188,-4.85E-04,-5.18E-04,-114.9175322,29.80984546661377,-31.38010735,Home
19,0.999355791,-0.010288347,0.032247317,0.011927059336194715,-0.064756436,0.019795495383803128,-3.1170831,-53.34901268,-13.80454369,-3.080865917,-158.25,9.927034044728696,-0.1962434,0.6444301165423347,-0.021575362,0.016366851895830585,-1.26E-04,9.927034044728696,-0.1962434,0.6444301165423347,-1.96E-04,1.7939934063955997E-4,-1.26E-04,45,0.10000000149011612,1.1370899677276611,3.9179999828338623,0.17243312299251556,58.57617188,160.1999969482422,-86.9154735,40.3848649,0.00334511,4.74843874718379E-4,8.994092061681654E-4,-114.9089919,29.814481468200682,-31.40060341,Home
20,0.9993541200184127,-0.010309228,0.032266683,0.011996593823638355,-0.064797104,0.019832256,-3.116942332,-53.42928898,-13.78599976,-3.087209916,-133.5555556,9.926778589637534,-0.196336325,0.6441048777219162,-0.021444889,0.016117768570129733,-1.38E-04,9.926778589637534,-0.196336325,0.6441048777219162,-6.52E-05,-6.97E-05,-1.38E-04,0,0.092195444,1.1471514701843262,3.9000000953674316,0.045091845,0,160.1999969482422,-86.9154753,40.3848649,-0.001336394,0.001148379,3.4327645903652156E-5,-114.9892677,29.83424543380737,-31.40706944,Home
21,0.9993445976422384,-0.0104533,0.032348043,0.012436219,-0.064972509,0.020089652801219087,-3.116052295,-53.38671082,-13.84724371,-3.014619935,-140.625,9.885148141,-0.200099793,0.6449644339894786,-0.021520618,0.016152211411211353,-9.40E-05,9.885148141,-0.200099793,0.6449644339894786,-1.41E-04,-3.52E-05,-9.40E-05,0,0.1140175461769104,1.1570096015930176,3.9000000953674316,0.063193753,0,160.1999969482422,-86.9154763,40.3848647,-0.020091644,-9.58E-04,5.727158142970159E-4,-114.9460798,29.773977489471434,-31.33338133,Home
22,0.9993319476692422,-0.010632015,0.032477898,0.012953415811423537,-0.065247717,0.020409834073874557,-3.115003852,-53.38231903,-13.81149774,-3.073057938,-156.3333333,9.872487068,-0.201981528,0.6452664449376967,-0.021373723,0.016070324149959295,-2.09E-04,9.872487068,-0.201981528,0.6452664449376967,5.930555912042127E-6,-1.17E-04,-2.09E-04,45,0.1140175461769104,1.1670211553573608,3.881000042,0.13306428492069244,87.19100189208984,160.1999969482422,-86.9154732,40.3848648,-0.007573017,8.82423618464794E-6,-1.80E-04,-114.9422977,29.809601421356202,-31.3930394,Home
23,0.9993264171683672,-0.010687562,0.032529147,0.013203717008667085,-0.065356948,0.020503149467330534,-3.114498685,-53.39268883,-13.81430367,-3.012423916,-168,9.877806941282403,-0.202376459,0.6460098479557963,-0.021255112,0.016011019,-1.14E-04,9.877806941282403,-0.202376459,0.6460098479557963,1.2454167415288468E-4,-1.76E-04,-1.14E-04,0,0.1140175461769104,1.1770209074020386,3.881000042,0.034364018589258194,0,160.1999969482422,-86.9154748,40.3848645,0.001698762,4.5859524347249744E-4,-2.61E-04,-114.9529118,29.80423355102539,-31.33216139,Home
24,0.9993255456674446,-0.010703493,0.032523451,0.013270502593549132,-0.065347373,0.020530782115546244,-3.114364231,-53.3856131,-13.83443371,-3.013399923,-163.7777778,9.882641968217868,-0.202379363,0.6461956929234625,-0.021587223,0.016058463015530294,-9.04E-05,9.882641968217868,-0.202379363,0.6461956929234625,-2.08E-04,-1.29E-04,-9.04E-05,0,0.092195444,1.187021017074585,3.881000042,0.012304224073886871,0,160.1999969482422,-86.9154747,40.3848645,0.002245459,8.202549612637862E-4,-2.61E-04,-114.9454694,29.786177463531494,-31.33423534,Home
25,0.9993297313023539,-0.010666134,0.03245699,0.013146876863845922,-0.065210781,0.020465966802343583,-3.114615225,-53.35962688,-13.80185971,-2.995831912,-166.3333333,9.890026685,-0.201749214,0.6445230430769688,-0.021385584,0.016165213,-1.93E-05,9.890026685,-0.201749214,0.6445230430769688,-5.93E-06,-2.22E-05,-1.93E-05,0,0.086023256,1.1969975233078003,3.881000042,0.017202707,0,160.1999969482422,-86.9154745,40.3848648,0.005018818,8.987091409349905E-4,-8.81E-04,-114.9198495,29.819239406585694,-31.31666742,Home
26,0.9993396268307584,-0.010503979,0.032337121,0.012816926808033174,-0.064959677,0.020166520571824418,-3.115288001,-53.44527103,-13.77965569,-2.978507919,-147.375,9.931482269213749,-0.196602591,0.6448426957313831,-0.021397445,0.016177074142813105,-1.62E-04,9.931482269213749,-0.196602591,0.6448426957313831,-1.78E-05,-1.04E-05,-1.62E-04,0,0.10000000149011612,1.2070951461791992,4.9120001792907715,0.014995713718235493,0,160.1999969482422,-86.9154745,40.3848649,0.021212078,0.003547703,2.8137790346608577E-4,-115.0050053,29.84022342681885,-31.29824545,Home
27,0.9993418715532544,-0.010313637,0.032312126486625486,0.012859789690780409,-0.064905237,0.019783932317807836,-3.115215262,-53.39354294,-13.82442971,-3.013277919,-145.4444444,9.945073498,-0.19608078,0.6461956963955777,-0.021266973,0.016046601881101293,4.447914108416988E-6,9.945073498,-0.19608078,0.6461956963955777,1.1268056232880041E-4,-1.41E-04,4.447914108416988E-6,0,0.086023256,1.2170518636703491,4.938000202178955,0.012796608731150627,0,160.1999969482422,-86.9154745,40.384865,0.008103908,0.001023565,6.100859456849329E-4,-114.9533996,29.796791515350343,-31.33264942,Home
28,0.9993439814419423,-0.010240925,0.032289044045418214,0.012811553429414346,-0.06485609,0.019642326,-3.115316916,-53.36231075,-13.78246169,-3.064517937,-131.5,9.943955338116988,-0.194434263,0.6456149139450592,-0.021409306,0.01623638,1.63090248022554E-5,9.943955338116988,-0.194434263,0.6456149139450592,-2.97E-05,4.892711340024778E-5,1.63090248022554E-5,0,0.086023256,1.227156639099121,4.945000171661377,0.005277243,0,160.1999969482422,-86.9154744,40.3848649,4.861609449664366E-4,0.001158367,-8.88E-05,-114.9221676,29.837295303344728,-31.38584143,Home
29,0.9993447181090568,-0.010241133,0.032278817,0.012779488617066041,-0.06483499,0.019645088,-3.115381225,-53.36182289,-13.77074969,-3.091967947,-121,9.939863806789361,-0.194527188,0.6456381429746313,-0.021302556,0.016188935168738504,-2.68E-04,9.939863806789361,-0.194527188,0.6456381429746313,7.709722685654765E-5,1.4826672341566062E-6,-2.68E-04,0,0.086023256,1.2371795177459717,4.975999832,0.017826193943619728,0,160.1999969482422,-86.9154744,40.3848652,-0.001703077,9.835743643705128E-4,1.3517233931902543E-4,-114.9216801,29.849007453918457,-31.41146135,Home
30,0.9993407044273156,-0.010292018,0.032324226,0.012936770172718052,-0.064930371,0.019735398,-3.115062535,-53.37048481,-13.84699966,-3.068909934,-141.375,9.935592095828751,-0.196104012,0.6470087911318807,-0.021250436,0.016163958442540698,-4.70E-05,9.935592095828751,-0.196104012,0.6470087911318807,1.2921768939122558E-4,-2.35E-05,-4.70E-05,0,0.086023256,1.2469788789749146,4.856999874,0.00274667,0,160.1999969482422,-86.9154744,40.3848651,-0.002311257,3.559533506631851E-4,9.742900729179382E-4,-114.930342,29.77287956237793,-31.38840338,Home
31,0.9993383288383484,-0.010315707,0.032344451,0.013050765784692418,-0.064973756,0.01977481,-3.114832665,-53.359627,-13.8284557,-3.031211932,-147.3333333,9.933559306616923,-0.195476767,0.6464047767583606,-0.021385584,0.016212657383344705,-1.50E-04,9.933559306616923,-0.195476767,0.6464047767583606,-5.93E-06,2.5204891447448036E-5,-1.50E-04,0,0.086023256,1.1061519384384155,3.990000009536743,0.079097942,0,160.1999969482422,-86.9154756,40.3848644,-0.001283257,0.001309333,1.1368804764979095E-4,-114.9198503,29.79154544830322,-31.35070547,Home
32,0.9993369810789534,-0.010255372,0.032361901,0.013157920179508844,-0.065009086,0.019646775,-3.114622026,-53.38927299,-13.82308769,-3.046095927,-143.875,9.930960238558574,-0.194942447,0.6456149116303157,-0.021266973,0.016034740746672292,2.8170137191462576E-5,9.930960238558574,-0.194942447,0.6456149116303157,1.1268056232880041E-4,-1.53E-04,2.8170137191462576E-5,0,0.092195444,1.1161283254623413,3.990000009536743,0.035878718,0,160.1999969482422,-86.9154756,40.3848643,-0.001166946,5.160975224763444E-4,-8.54E-04,-114.9493735,29.7966695,-31.36693129,Home
33,0.9993390168958497,-0.010265444,0.032326636492337996,0.013081744159526617,-0.064937304,0.019672806,-3.114774368,-53.3746328,-13.82808969,-2.997295921,-148.3333333,9.930803308,-0.195197992,0.6460330804574836,-0.021361862,0.016153351864913134,-7.86E-05,9.930803308,-0.195197992,0.6460330804574836,1.779166773612638E-5,-3.41E-05,-7.86E-05,0,0.092195444,1.1262123584747314,3.9820001125335693,0.023498717695474625,0,160.1999969482422,-86.9154756,40.3848641,-4.08E-04,5.009644529194508E-4,3.392389677103283E-4,-114.9344897,29.79105743408203,-31.31788744,Home
34,0.9993425000061109,-0.010229498,0.032286033,0.012943400838638394,-0.064852334,0.019611016,-3.115054105,-53.34120483,-13.78282771,-3.138571949,-155.7777778,9.928892561532919,-0.194872753,0.6440119523446537,-0.021302556,0.016117768561087764,6.375347492420703E-5,9.928892561532919,-0.194872753,0.6440119523446537,7.709722685654765E-5,-6.97E-05,6.375347492420703E-5,0,0.086023256,1.1361931562423706,3.9749999046325684,0.009450273,0,160.1999969482422,-86.9154755,40.3848641,-0.001023394,1.8473866495113928E-4,-7.52E-04,-114.9013055,29.838149490356447,-31.45916342,Home
35,0.9993368624483497,-0.010287627,0.032354634074331486,0.013159450821723173,-0.064995487,0.019711343643879428,-3.114617005,-53.3841489,-13.82003768,-3.050243912,-156.625,9.923840696995075,-0.196763647,0.6464992669912485,-0.021219528,0.016058462961278493,-7.86E-05,9.923840696995075,-0.196763647,0.6464992669912485,1.6012500962513744E-4,-1.29E-04,-7.86E-05,0,0.092195444,1.1461799144744873,3.9040000438690186,0.009455984,0,160.1999969482422,-86.9154755,40.3848643,-0.003906833,-6.45E-04,3.94407985279861E-4,-114.9437616,29.79984146118164,-31.3703474,Home
36,0.9993289084110445,-0.010513106,0.032412563,0.013439183051074013,-0.065123434,0.020142258,-3.11404175,-53.43404694,-13.81344974,-2.985705924,-169,9.884149218,-0.200959351,0.6453361401280153,-0.021338139,0.016141490811861836,-1.26E-04,9.884149218,-0.200959351,0.6453361401280153,4.151389138429489E-5,-4.60E-05,-1.26E-04,0,0.086023256,1.1561044454574585,3.9119999408721924,0.005280034,0,160.1999969482422,-86.9154755,40.3848643,-0.019590489,-0.001136656,-3.26E-04,-114.993538,29.80606351852417,-31.30556541,Home
37,0.9993167426979658,-0.010688209,0.032523024,0.013929031002651719,-0.065359564,0.020457193,-3.113048542,-53.39891087,-13.84285168,-3.009983923,-171.25,9.872231529754343,-0.202539078,0.646637094,-0.021350001,0.016070324,-1.38E-04,9.872231529754343,-0.202539078,0.646637094,2.9652779560210635E-5,-1.17E-04,-1.38E-04,0,0.086023256,1.1660922765731812,3.9200000762939453,0.00203793,0,160.1999969482422,-86.9154755,40.3848643,-0.007318358,-1.34E-04,1.1244908119868307E-4,-114.958646,29.777393531799316,-31.3293553,Home
38,0.9993153029275172,-0.010707817,0.032525130665128674,0.014013440899767922,-0.065366079,0.020490823,-3.112878455,-53.37646301,-13.8285777,-3.003151927,-153.4444444,9.875902009,-0.20186537,0.6459401498720484,-0.021397445,0.016034740800924093,-6.67E-05,9.875902009,-0.20186537,0.6459401498720484,-1.78E-05,-1.53E-04,-6.67E-05,0,0.086023256,1.1760749816894531,3.947000026702881,0.004906731,0,160.1999969482422,-86.9154754,40.3848643,9.874047584904051E-4,7.30048394897609E-4,-4.35E-04,-114.9366856,29.789959526062013,-31.32276745,Home
39,0.9993181446423898,-0.010728462,0.032486799567078166,0.013882509710338827,-0.065287303,0.020541725,-3.113139659,-53.40830494,-13.79771169,-3.056709936,-154.75,9.882244054553578,-0.203096628,0.6452199816703796,-0.021344412,0.016304923,-9.40E-05,9.882244054553578,-0.203096628,0.6452199816703796,3.5241188015788794E-5,1.1747064742779073E-4,-9.40E-05,0,0.1063014566898346,1.1860445737838745,3.9700000286102295,0.00241641,0,160.1999969482422,-86.9154754,40.3848643,0.002799804,2.842875054249397E-4,-5.38E-04,-114.9687717,29.823997459411622,-31.37608139,Home
40,0.9993254467121606,-0.010728097,0.032402763,0.013550287465230354,-0.065112305,0.020565034423782987,-3.113805669,-53.360359,-13.8522457,-3.094285939,-142.4444444,9.888470205288488,-0.202817854,0.6441513398318615,-0.021338139,0.016094046373607465,-1.02E-04,9.888470205288488,-0.202817854,0.6441513398318615,4.151389138429489E-5,-9.34E-05,-1.02E-04,0,0.086023256,1.1961290836334229,4.019000053405762,8.900677203200758E-4,0,160.1999969482422,-86.9154754,40.3848643,0.003809392,8.028925043865315E-4,-2.52E-04,-114.9202155,29.768121547698975,-31.41438938,Home
41,0.9993319569282162,-0.010605658,0.032332815,0.013331329314381753,-0.064964335,0.020336456,-3.114252915,-53.35413685,-13.7977117,-2.979239905,-154.25,9.924766290535047,-0.198705916,0.6447785855496971,-0.021302556,0.016224518553941573,-5.49E-05,9.924766290535047,-0.198705916,0.6447785855496971,7.709722685654765E-5,3.7065998185426E-5,-5.49E-05,0,0.092195444,1.2062026262283325,5.314000129699707,0.008876065,0,160.1999969482422,-86.9154753,40.3848644,0.020142990408591854,0.003055458,5.455885118651159E-4,-114.9142379,29.82143548965454,-31.29958738,Home
42,0.9993402807457933,-0.01037526,0.032253756829835833,0.013078494,-0.06479449,0.019894479113875083,-3.114775109,-53.40464493,-13.83967967,-3.051463933,-154.7777778,9.944992195055322,-0.19589493,0.6450573639962279,-0.021409306,0.016224518581067476,-6.67E-05,9.944992195055322,-0.19589493,0.6450573639962279,-2.97E-05,3.706599592493431E-5,-6.67E-05,0,0.086023256,1.2160613536834717,5.15500021,0.00475945,0,160.1999969482422,-86.9154753,40.3848644,0.010333404,0.00207558,5.690304978379925E-4,-114.9647456,29.779711418151855,-31.37156736,Home
43,0.9993355308921592,-0.010335129,0.032307106025010635,0.013338368,-0.064905254,0.019795959,-3.11425709,-53.38097691,-13.79856568,-3.041703937,-144.8888889,9.930710440700494,-0.196522175,0.6461492348643183,-0.021397445,0.016248241,-1.14E-04,9.930710440700494,-0.196522175,0.6461492348643183,-1.78E-05,6.078822296384035E-5,-1.14E-04,0,0.086023256,1.2261534929275513,5.370999813079834,0.001804192,0,160.1999969482422,-86.9154753,40.3848644,-0.00543687,4.99458278267129E-4,4.5427593212683223E-4,-114.9409558,29.82204532623291,-31.36192945,Home
44,0.999335595,-0.010358281,0.032296525,0.013341383601638298,-0.064884802,0.019842334833104634,-3.114249755,-53.40574291,-13.79575974,-3.045607927,-144.875,9.937780811236454,-0.196740639,0.6460161014245107,-0.021314417,0.016094046,-1.93E-05,9.937780811236454,-0.196740639,0.6460161014245107,6.52361150324634E-5,-9.34E-05,-1.93E-05,0,0.092195444,1.2361847162246704,5.4070000648498535,0.004435705,0,160.1999969482422,-86.9154754,40.3848644,0.003187467,6.75144126114336E-4,6.883017067770357E-4,-114.965722,29.823387489318847,-31.3649794,Home
45,0.9993363445244946,-0.010342011,0.032291978,0.013309189778508491,-0.064874602,0.019812029,-3.114315283,-53.40391296,-13.81076573,-3.057075927,-163.8888889,9.936358776,-0.196266631,0.6448482818973874,-0.021172084,0.015939852,-9.04E-05,9.936358776,-0.196266631,0.6448482818973874,2.0756945692147446E-4,-2.48E-04,-9.04E-05,0,0.092195444,1.246064544,5.237999916,0.00228271,0,160.1999969482422,-86.9154754,40.3848644,-7.40E-04,9.553730487823486E-4,-6.67E-04,-114.9631596,29.80691743850708,-31.37681332,Home
46,0.9993304760710707,-0.01030758,0.032366419771631946,0.01359287,-0.065028177,0.019722730192599944,-3.11374887,-53.31168102,-13.79014774,-3.027185922,-155.375,9.935005428721604,-0.194756597,0.6466603261753193,-0.021243251,0.016011018586317892,-1.62E-04,9.935005428721604,-0.194756597,0.6466603261753193,1.3640278597696893E-4,-1.76E-04,-1.62E-04,45,0.092195444,1.1060644388198853,4.182000160217285,0.18611767888069153,268.0938720703125,160.1999969482422,-86.9154791,40.3848643,-6.87E-04,0.001508519,-1.93E-04,-114.8705618,29.829731521606444,-31.3470454,Home
47,0.9993270867079207,-0.010304504,0.032391998772192926,0.013781921214704375,-0.065082996,0.019703562561314083,-3.113370569,-53.324491,-13.79441773,-3.028405926,-150.8888889,9.933518668980275,-0.19570908,0.646706787,-0.021278834,0.016153351919164935,-5.49E-05,9.933518668980275,-0.19570908,0.646706787,1.0081945050471616E-4,-3.41E-05,-5.49E-05,0,0.092195444,1.1160413026809692,4.188000202178955,0.092236929,0,160.1999969482422,-86.9154794,40.3848644,-5.04E-04,2.8489848363746716E-4,-6.51E-04,-114.884348,29.824485359191893,-31.3480213,Home
48,0.9993305675034384,-0.010300333,0.032360171,0.013606069944075589,-0.065015722,0.019707556126765835,-3.113723086,-53.34620689,-13.81747565,-3.101605935,-151.625,9.930658127,-0.195453536,0.6460330798787978,-0.021266973,0.016046601853975394,-4.30E-05,9.930658127,-0.195453536,0.6460330798787978,1.1268056232880041E-4,-1.41E-04,-4.30E-05,0,0.1140175461769104,1.1259984970092773,4.185999870300293,0.034371823,0,160.1999969482422,-86.9154794,40.3848644,-0.001441854,6.322588735413782E-4,-5.91E-04,-114.9059419,29.803257541656492,-31.42158735,Home
49,0.9993323070498613,-0.010271643,0.032342144,0.013543112982565967,-0.064977575,0.019654807,-3.113851178,-53.36109104,-13.81637773,-3.007421918,-148,9.930896222012715,-0.194477821,0.645591681,-0.021285677,0.0159995,-1.68E-12,9.930896222012715,-0.194477821,0.645591681,9.397650137543678E-5,-1.88E-04,-1.68E-12,0,0.12041594833135605,1.136050820350647,4.196000099182129,0.011286796070635319,0,160.1999969482422,-86.9154793,40.3848644,-1.53E-04,0.001100463,-4.14E-04,-114.9208261,29.803501377105714,-31.32728142,Home
50,0.9993324169834841,-0.01024727,0.032335055,0.013570392784635418,-0.064963215,0.019604512,-3.113798378,-53.4217252,-13.86444569,-3.072081931,-170,9.926151201562973,-0.195802005,0.6448947445860187,-0.021326278,0.016034740764756226,1.1119792109029819E-4,9.926151201562973,-0.195802005,0.6448947445860187,5.337500320837914E-5,-1.53E-04,1.1119792109029819E-4,0,0.11313708126544952,1.1459802389144897,4.215000152587891,0.003485939,0,160.1999969482422,-86.9154793,40.3848644,-0.002994667,-8.24E-04,-9.24E-04,-114.9812155,29.75506748199463,-31.39206341,Home
51,0.9993260375504355,-0.010433457,0.032390795,0.013762956675033546,-0.06508404,0.019962577,-3.113400045,-53.35987076,-13.81186374,-3.023769917,-164.8888889,9.887726820788338,-0.200169487,0.6453593685789015,-0.021492334,0.016165213,-7.86E-05,9.887726820788338,-0.200169487,0.6453593685789015,-1.13E-04,-2.22E-05,-7.86E-05,0,0.1140175461769104,1.1559984683990479,4.228000164031982,0.001026222,0,160.1999969482422,-86.9154793,40.3848644,-0.020029188,-0.002057505,-2.68E-04,-114.9205817,29.806307373046874,-31.34448338,Home
52,0.9993151293217557,-0.010691695,0.032478537,0.014145113762865947,-0.065275051,0.020451336448053713,-3.112617196,-53.41452679,-13.83211574,-2.955327919,-155.5555556,9.871650761,-0.203143091,0.645173521,-0.021266973,0.015939851888247484,-7.86E-05,9.871650761,-0.203143091,0.645173521,1.1268056232880041E-4,-2.48E-04,-7.86E-05,0,0.092195444,1.165932536125183,4.268000126,0.007769798,0,160.1999969482422,-86.9154792,40.3848645,-0.008970214,-7.30E-04,-5.80E-04,-114.9748717,29.78934949874878,-31.27530935,Home
53,0.999313073,-0.010725462,0.032488452795061094,0.014242471430848525,-0.065297905,0.020512195231700406,-3.112420105,-53.37695087,-13.82320969,-3.027063925,-160.125,9.874557742705711,-0.203366916,0.6449577367076507,-0.021219528,0.016082185,8.747569857237554E-5,9.874557742705711,-0.203366916,0.6449577367076507,1.6012500962513744E-4,-1.05E-04,8.747569857237554E-5,0,0.1063014566898346,1.1759201288223267,4.284999847412109,0.004003789,0,160.1999969482422,-86.9154793,40.3848645,2.3397427160763045E-4,-4.67E-04,-6.00E-04,-114.937418,29.79679145812988,-31.34655731,Home
54,0.9993104645349447,-0.010747646,0.032513122,0.014351756755009439,-0.065350195,0.020548673364722613,-3.112199617,-53.45417698,-13.8307737,-3.110023954,-135.1111111,9.882778436234855,-0.202632003,0.6457310712453231,-0.021172084,0.015975435273450554,-1.93E-05,9.882778436234855,-0.202632003,0.6457310712453231,2.0756945692147446E-4,-2.12E-04,-1.93E-05,0,0.14866068959236145,1.185989499092102,4.300000190734863,0.008109389,0,160.1999969482422,-86.9154792,40.3848646,0.003955748,5.69553774537392E-4,-5.57E-04,-115.0139117,29.789471435546876,-31.42915134,Home
55,0.999313875,-0.010734644,0.032483279307201074,0.014190801988961627,-0.065286772,0.020534070588431312,-3.11252291,-53.34364502,-13.85456367,-3.045851924,-132.875,9.886309577423392,-0.202515847,0.6472411057324086,-0.021504195,0.016271963073573644,-1.14E-04,9.886309577423392,-0.202515847,0.6472411057324086,-1.25E-04,8.451043587467335E-5,-1.14E-04,0,0.092195444,1.1959292888641357,4.320000171661377,0.009968932,0,160.1999969482422,-86.9154792,40.3848647,0.002439027,9.237014263578989E-4,0.001135496,-114.9039902,29.766901588439943,-31.3646134,Home
56,0.9993189463337648,-0.010672287,0.032430569,0.013999014667877294,-0.065175497,0.020423448237689955,-3.112911576,-53.36914284,-13.7798997,-3.079279919,-142.6666667,9.903524093257571,-0.200332106,0.6454755253004796,-0.021468612,0.016343129672182415,-1.14E-04,9.903524093257571,-0.200332106,0.6454755253004796,-8.90E-05,1.556771158611456E-4,-1.14E-04,0,0.1063014566898346,1.2059416770935059,5.505000114440918,0.015657192,0,160.1999969482422,-86.915479,40.3848648,0.011461591257632357,0.001891336,-1.52E-04,-114.9293654,29.840467433929444,-31.39999334,Home
57,0.9993309870506953,-0.010425496,0.03232066,0.013573844040047776,-0.064939667,0.019960935,-3.113780075,-53.3502327,-13.80076172,-3.020841925,-140.125,9.942590602,-0.195058604,0.6471249519042599,-0.021397445,0.016343129672182415,-9.04E-05,9.942590602,-0.195058604,0.6471249519042599,-1.78E-05,1.5567711529602268E-4,-9.04E-05,0,0.12041594833135605,1.2160264253616333,5.760000228881836,0.007917766,0,160.1999969482422,-86.915479,40.3848648,0.018281057,0.003457291,0.001897171,-114.9104562,29.818019466400145,-31.34033531,Home
58,0.9993332377993144,-0.010275864,0.032310254,0.013547377454904983,-0.064913965,0.019663853,-3.113843005,-53.39756889,-13.81625571,-3.076839943,-154.2222222,9.941945872,-0.195802005,0.6457310729813808,-0.021356159,0.016058234963566065,-5.87E-05,9.941945872,-0.195802005,0.6457310729813808,2.3494125343859196E-5,-1.29E-04,-5.87E-05,0,0.092195444,1.2260143756866455,5.806000232696533,0.007232778,0,160.1999969482422,-86.9154789,40.3848648,2.2298556107741135E-4,-2.82E-05,-3.78E-04,-114.9571815,29.803501510620116,-31.39718733,Home
59,0.9993327890784995,-0.010392095,0.032302687577541594,0.013509477,-0.064901447,0.019898848,-3.113911309,-53.34425472,-13.79746772,-2.992659912,-174.125,9.933106237244838,-0.197033263,0.6451502899521763,-0.021350001,0.016141490811861836,-1.73E-04,9.933106237244838,-0.197033263,0.6451502899521763,2.9652779560210635E-5,-4.60E-05,-1.73E-04,0,0.12041594833135605,1.2359445095062256,5.642000198364258,0.010514093,0,160.1999969482422,-86.9154788,40.3848649,-0.001535045,9.830702566406102E-4,-4.09E-04,-114.9042339,29.825583419799806,-31.31264133,Home
60,0.9993344296529455,-0.010269926,0.032296501,0.013496482,-0.06488527,0.019655664,-3.113945415,-53.34547489,-13.82259972,-3.020475924,-161.3333333,9.93662012,-0.195453535,0.6453593697362733,-0.021302556,0.016153351873955103,8.747569913749845E-5,9.93662012,-0.195453535,0.6453593697362733,7.709722685654765E-5,-3.41E-05,8.747569913749845E-5,0,0.092195444,1.246058702468872,5.894999980926514,0.004794364,0,160.1999969482422,-86.9154788,40.3848649,3.3676740035270023E-4,1.7373408507374884E-4,-1.45E-04,-114.9048441,29.796913433074952,-31.34009132,Home
61,0.9993312202611015,-0.01027474,0.032334613,0.013638488857925516,-0.064964467,0.01965501,-3.113660424,-53.32656494,-13.81161971,-3.062443919,-173.75,9.936167106,-0.196382788,0.64675325,-0.021302556,0.016188935,-3.11E-05,9.936167106,-0.196382788,0.64675325,7.709722685654765E-5,1.482659887558627E-6,-3.11E-05,0,0.12041594833135605,1.105765939,4.53000021,0.037524137645959854,0,160.1999969482422,-86.9154795,40.3848648,-1.39E-04,-7.61E-04,4.5707214225843115E-4,-114.8867875,29.808137397766114,-31.38303539,Home
62,0.9993278175881766,-0.010271263,0.032375632,0.013792067024748302,-0.065049458,0.019636919794296756,-3.113352785,-53.44270885,-13.7947837,-3.066469922,-165.4444444,9.934861642,-0.195199109,0.6470744644220059,-0.021385584,0.015999157460930856,4.447915803785753E-6,9.934861642,-0.195199109,0.6470744644220059,-5.93E-06,-1.88E-04,4.447915803785753E-6,0,0.15556348860263824,1.1157708168029785,4.460000038146973,0.014175732,0,160.1999969482422,-86.9154795,40.3848648,-9.33E-04,1.1928712280051222E-4,-5.58E-05,-115.0025658,29.825827503204344,-31.38669535,Home
63,0.9993213264687547,-0.010307886,0.032448485746835044,0.014061199736247943,-0.065201635,0.019690517,-3.112810848,-53.40281487,-13.79844376,-3.094773929,-169.6666667,9.922968549635804,-0.196893876,0.6477754266516677,-0.021385584,0.016034740791882125,4.447914673539909E-6,9.922968549635804,-0.196893876,0.6477754266516677,-5.93E-06,-1.53E-04,4.447914673539909E-6,0,0.1063014566898346,1.1257760524749756,5.534999847412109,0.006249693,0,160.1999969482422,-86.9154795,40.3848648,-0.005400408,-9.53E-04,-3.77E-04,-114.96255,29.81997148513794,-31.4140234,Home
64,0.9993248280969639,-0.010305478,0.032407283204273114,0.013907439500382804,-0.06511609,0.019696889,-3.113119234,-53.35791882,-13.83321369,-2.992903914,-145.25,9.930193484408184,-0.195499999,0.6462886240875837,-0.021444889,0.016319407,-5.49E-05,9.930193484408184,-0.195499999,0.6462886240875837,-6.52E-05,1.319548922129771E-4,-5.49E-05,0,0.15556348860263824,1.1357430219650269,6.625,0.004910232,0,160.1999969482422,-86.9154795,40.3848649,0.003032814,3.37679264614883E-4,-9.47E-04,-114.9181416,29.785201511383057,-31.31288544,Home
65,0.9993271978156081,-0.010252442,0.03238505,0.013828840766789264,-0.065068473,0.019596641,-3.113280303,-53.3599929,-13.84724372,-3.024135926,-171.5555556,9.926383556,-0.195128298,0.6471714145928911,-0.021314417,0.016058463,-3.11E-05,9.926383556,-0.195128298,0.6471714145928911,6.52361150324634E-5,-1.29E-04,-3.11E-05,0,0.1063014566898346,1.145767331123352,7.214000225067139,0.003496462,0,160.1999969482422,-86.9154795,40.3848649,-0.00270438,-8.68E-05,2.3389499164322048E-4,-114.9199719,29.77165948867798,-31.34375135,Home
66,0.9993154834775091,-0.010382989,0.032508655586867656,0.014279566045163327,-0.065328642,0.019824628,-3.112368079,-53.40196083,-13.81405972,-3.023769922,-136.25,9.890491365229042,-0.200030099,0.6466835552048915,-0.021278834,0.015916129673641283,1.5864236895175813E-4,9.890491365229042,-0.200030099,0.6466835552048915,1.0081945050471616E-4,-2.71E-04,1.5864236895175813E-4,0,0.1063014566898346,1.155720829963684,8.147999763,0.00174704,0,160.1999969482422,-86.9154795,40.3848649,-0.018650731,-0.003389313,-0.001375392,-114.9618179,29.80594148635864,-31.34423944,Home
67,0.999308858,-0.010610041,0.032561271,0.014456505367818933,-0.065444433,0.020265358,-3.111998276,-53.39927685,-13.85322176,-3.047803922,-150.6666667,9.873950615669917,-0.203096629,0.6466370948310037,-0.021215195,0.016128717,3.5241188015788794E-5,9.873950615669917,-0.203096629,0.6466370948310037,1.6445887740701437E-4,-5.87E-05,3.5241188015788794E-5,0,0.1063014566898346,1.1656757593154907,9.137999534606934,0.003986238,0,160.1999969482422,-86.9154794,40.3848649,-0.008839846,-0.002382068,-9.40E-04,-114.9602318,29.767267417907714,-31.36778534,Home
68,0.9993118389138897,-0.010706716,0.032516167,0.014279846662601221,-0.065353557,0.020471473,-3.112346043,-53.39159084,-13.8151577,-3.053781924,-134.75,9.877528190612793,-0.203050166,0.6444533478866503,-0.021290695,0.015904268566338184,-6.67E-05,9.877528190612793,-0.203050166,0.6444533478866503,8.89583386806319E-5,-2.83E-04,-6.67E-05,0,0.092195444,1.1756585836410522,10.14900016784668,0.001036893,0,160.1999969482422,-86.9154795,40.3848649,7.901886134471708E-4,-5.16E-04,-0.001826292,-114.9516918,29.803867416381834,-31.37351936,Home
69,0.9993126444446231,-0.010675904,0.032510149030430806,0.014260032982791512,-0.065340167,0.020411357030417156,-3.112387819,-53.40232681,-13.80930172,-2.991439922,-159.2222222,9.884334916049994,-0.201795676,0.6450573622601704,-0.021183945,0.015880546279396248,-1.93E-05,9.884334916049994,-0.201795676,0.6450573622601704,1.957083450973902E-4,-3.07E-04,-1.93E-05,0,0.092195444,1.185716152191162,10.142000198364258,0.005591652,0,160.1999969482422,-86.9154794,40.384865,0.003191411,2.3361968183980406E-4,-0.001377651,-114.9623058,29.81106550216675,-31.31178734,Home
70,0.9993149933305759,-0.010710816,0.032478815903073374,0.014140137,-0.06527608,0.020489878753579938,-3.11262587,-53.43099686,-13.82442975,-3.019011917,-145.875,9.889980260608265,-0.203212784,0.644523042,-0.021112778,0.016011018577275923,1.6309027062747086E-5,9.889980260608265,-0.203212784,0.644523042,2.668750160418957E-4,-1.76E-04,1.6309027062747086E-5,0,0.092195444,1.1956981420516968,10.128999710083008,0.004015211,0,160.1999969482422,-86.9154794,40.384865,0.004132456,-3.11E-04,-0.001583934,-114.9903654,29.794717445373536,-31.33935936,Home
71,0.9993230364855054,-0.010569518,0.032399547259205755,0.013856275,-0.065107452,0.020228220041371085,-3.113204357,-53.3558448,-13.83760569,-3.018157918,-155.4444444,9.929967176567004,-0.198914997,0.6459169231572197,-0.021290695,0.016141491,-9.04E-05,9.929967176567004,-0.198914997,0.6459169231572197,8.89583386806319E-5,-4.60E-05,-9.04E-05,0,0.092195444,1.205741286277771,11.600000381469727,0.008561396,0,160.1999969482422,-86.9154793,40.3848651,0.020784692856871966,0.001866225,-3.68E-05,-114.9154579,29.780809459686278,-31.33813938,Home
72,0.9993303273488017,-0.010327569,0.03233952,0.013652424,-0.064976103,0.019759562644130976,-3.113629005,-53.35852879,-13.78368172,-3.030357914,-161.3333333,9.946368611775911,-0.195613251,0.6450497691447918,-0.021207667,0.01580938,6.375347548932994E-5,9.946368611775911,-0.195613251,0.6450497691447918,1.719861214492217E-4,-3.78E-04,6.375347548932994E-5,0,0.092195444,1.2157504558563232,11.581999778747559,0.010099936,0,160.1999969482422,-86.9154793,40.3848652,0.009194846,0.001037688,-0.001423589,-114.9187521,29.83595344543457,-31.35009539,Home
73,0.9993329835169523,-0.010249694,0.032316187,0.013571721673445794,-0.064925553,0.019609797185341133,-3.113795924,-53.40049675,-13.81979366,-3.051707911,-158.5,9.942253798,-0.195407074,0.6458239983586431,-0.021278834,0.01612963,7.561458674829128E-5,9.942253798,-0.195407074,0.6458239983586431,1.0081945050471616E-4,-5.78E-05,7.561458674829128E-5,0,0.1063014566898346,1.225806474685669,11.56499958,0.011910557746887207,0,160.1999969482422,-86.9154792,40.3848653,-6.10E-04,-5.96E-05,-4.19E-04,-114.9605978,29.800695514678956,-31.37120136,Home
74,0.9993325813302716,-0.01020199,0.032326173,0.013613012,-0.064944956,0.019511480517323734,-3.113716308,-53.3629211,-13.82967569,-3.011447923,-161.4444444,9.939346924568843,-0.194872754,0.6449644380402797,-0.021290695,0.016129629677432835,2.817013945195426E-5,9.939346924568843,-0.194872754,0.6449644380402797,8.89583386806319E-5,-5.78E-05,2.817013945195426E-5,0,0.14866068959236145,1.2357834577560425,11.574000358581543,0.006892606,0,160.1999969482422,-86.9154792,40.3848653,-0.001703225,-6.81E-04,-0.00153683,-114.9222897,29.79081350326538,-31.3315514,Home
75,0.999336379,-0.010242106,0.032275998,0.013422167,-0.064841981,0.019605445,-3.114096232,-53.40037495,-13.83150563,-3.059637921,-152.5,9.934726678051994,-0.19517476,0.6450805964979153,-0.021290695,0.016177074133771136,-1.02E-04,9.934726678051994,-0.19517476,0.6450805964979153,8.89583386806319E-5,-1.04E-05,-1.02E-04,0,0.092195444,1.2457292079925537,11.600000381469727,0.009246862,0,160.1999969482422,-86.9154791,40.3848654,-0.002176183,5.995489439918E-5,-1.88E-05,-114.9595,29.788739528656006,-31.37949745,Home
76,0.9993311602335709,-0.01025795,0.032336994,0.013648791417766076,-0.064968941,0.019620696405092113,-3.11364087,-53.36267685,-13.8256497,-3.02718591,-153.8888889,9.934084864496027,-0.195755542,0.6469158698054194,-0.021285677,0.016058234891925868,-1.12E-12,9.934084864496027,-0.195755542,0.6469158698054194,9.397650137543678E-5,-1.29E-04,-1.12E-12,45,0.092195444,1.1052088737487793,10.102999687194824,0.12510137259960175,258.18743896484375,160.1999969482422,-86.9154819,40.3848649,-4.97E-04,-5.28E-04,6.621153308795049E-4,-114.9230215,29.792887477874757,-31.3474115,Home
77,0.9993228460978536,-0.010271567,0.032434438,0.014011801003469425,-0.065171456,0.019621546461599543,-3.11291228,-53.33376286,-13.84663372,-2.988877923,-147.75,9.930707505605753,-0.195848468,0.6475431132085115,-0.021278834,0.016058462988404396,5.189236310012277E-5,9.930707505605753,-0.195848468,0.6475431132085115,1.0081945050471616E-4,-1.29E-04,5.189236310012277E-5,0,0.1063014566898346,1.1151694059371948,10.111000061035156,0.089742832,0,160.1999969482422,-86.9154825,40.3848648,-0.001371365,-6.40E-04,-5.42E-04,-114.8934982,29.77300151824951,-31.3089814,Home
78,0.9993248535591421,-0.01027633,0.032410272,0.013921089108707835,-0.065121461,0.019637668,-3.113093814,-53.36231113,-13.81332772,-3.011569924,-144.7777778,9.928846044447816,-0.195778774,0.6467997096117261,-0.021219528,0.015987296326501855,1.6309027627870006E-5,9.928846044447816,-0.195778774,0.6467997096117261,1.6012500962513744E-4,-2.00E-04,1.6309027627870006E-5,0,0.092195444,1.1251180171966553,10.114999771118164,0.043678157,0,160.1999969482422,-86.9154826,40.3848648,-0.001432928,-4.46E-04,-6.70E-04,-114.9218015,29.80569736480713,-31.33167336,Home
79,0.9993219329315481,-0.01024788,0.032447756,0.01406359,-0.06519841,0.019570445,-3.112810024,-53.3529171,-13.81991572,-3.032431929,-143.125,9.928056170639483,-0.194895985,0.6469158674906759,-0.021266973,0.016034740819008027,4.447916934031595E-6,9.928056170639483,-0.194895985,0.6469158674906759,1.1268056232880041E-4,-1.53E-04,4.447916934031595E-6,0,0.1063014566898346,1.1351897716522217,10.128999710083008,0.012258837,0,160.1999969482422,-86.9154824,40.3848649,-4.40E-04,-2.66E-04,-0.001204676,-114.9126519,29.800329570770263,-31.35192532,Home
80,0.9993203212913958,-0.010260448,0.032465151,0.014127548892521163,-0.065234844,0.019590872855296412,-3.112680965,-53.39281094,-13.84285171,-3.089405916,-148.5555556,9.926615853911464,-0.195221223,0.6477289645417222,-0.02112464,0.015833101868267776,5.189236366524569E-5,9.926615853911464,-0.195221223,0.6477289645417222,2.5501390421781147E-4,-3.54E-04,5.189236366524569E-5,0,0.1414213627576828,1.1451051235198975,10.130000114440918,0.006121391,0,160.1999969482422,-86.9154824,40.3848649,-9.39E-04,-4.06E-04,-6.93E-04,-114.9529118,29.778735427856446,-31.40902138,Home
81,0.9993149343046169,-0.010419851,0.032511248280411784,0.014286108721879501,-0.065335073,0.019897818,-3.112352526,-53.35401501,-13.83284766,-2.963989913,-146.4444444,9.891767768,-0.200513935,0.6459010621676078,-0.021219528,0.015987296,-7.86E-05,9.891767768,-0.200513935,0.6459010621676078,1.6012500962513744E-4,-2.00E-04,-7.86E-05,0,0.1414213627576828,1.1550298929214478,10.133999824523926,0.002411981,0,160.1999969482422,-86.9154823,40.3848649,-0.01856577,-0.002945836,-0.002339681,-114.9137495,29.78568946838379,-31.28421547,Home
82,0.9993082238632498,-0.010649617,0.032564262561138396,0.014464222645224298,-0.065451814,0.02034386,-3.111980167,-53.37487701,-13.84224166,-3.058173935,-148,9.871975991332416,-0.202446153,0.6463815471501027,-0.021183945,0.015904268584422118,-1.02E-04,9.871975991332416,-0.202446153,0.6463815471501027,1.957083450973902E-4,-2.83E-04,-1.02E-04,0,0.1063014566898346,1.1650556325912476,10.163000106811523,0.006117919,0,160.1999969482422,-86.9154823,40.384865,-0.010379523,-0.001035535,-0.001267154,-114.9347339,29.778491401672362,-31.37827734,Home
83,0.99930848,-0.010710595,0.032554641,0.014423062997752601,-0.065433596,0.020468726,-3.112058644,-53.396959,-13.83760575,-3.016815929,-144,9.876622153717337,-0.203747105,0.64445335,-0.021302556,0.015904268530170317,2.817013945195426E-5,9.876622153717337,-0.203747105,0.64445335,7.709722685654765E-5,-2.83E-04,2.817013945195426E-5,0,0.1063014566898346,1.1750057935714722,10.178000450134277,0.004042715,0,160.1999969482422,-86.9154823,40.384865,0.001038579,-0.00124012,-0.002521289,-114.9570601,29.78227352142334,-31.33667534,Home
84,0.9993123446853416,-0.010756933,0.032504589414422955,0.014232350169744307,-0.065330948,0.020575285663159148,-3.112437917,-53.40427898,-13.82930968,-2.889447918,-142.125,9.882569331567264,-0.203003703,0.6449179759303343,-0.021148362,0.016011018586317892,-1.97E-04,9.882569331567264,-0.203003703,0.6449179759303343,2.3129168056964296E-4,-1.76E-04,-1.97E-04,0,0.1063014566898346,1.185079574584961,10.187999725341797,0.001878535,0,160.1999969482422,-86.9154823,40.384865,0.002883698,5.71834809571794E-4,-0.001398327,-114.9643796,29.79178955078125,-31.20979532,Home
85,0.9993129193204121,-0.010723019,0.032501759,0.014224692898829586,-0.065324096,0.020508084988709794,-3.112455539,-53.35913902,-13.84077775,-3.023647933,-131.3333333,9.890166180805096,-0.20346833,0.6458007652782699,-0.021172084,0.015963574,1.4678125882304263E-4,9.890166180805096,-0.20346833,0.6458007652782699,2.0756945692147446E-4,-2.24E-04,1.4678125882304263E-4,0,0.1063014566898346,1.1950181722640991,10.196999549865723,0.004047238,0,160.1999969482422,-86.9154822,40.384865,0.00500592,-5.44E-04,-6.96E-04,-114.9181416,29.780321521759035,-31.34338535,Home
86,0.9993135499266478,-0.010668414,0.032500432446025886,0.014224417615108766,-0.06531977,0.020398993922684055,-3.112459689,-53.41318481,-13.82211169,-3.014497929,-131.25,9.895648919262932,-0.202562309,0.6455916837581153,-0.021179953,0.015835040759366866,7.048237603157759E-5,9.895648919262932,-0.202562309,0.6455916837581153,1.9970006542280316E-4,-3.52E-04,7.048237603157759E-5,0,0.1063014566898346,1.0547614097595215,10.197999954223633,0.011597631499171257,0,160.09999084472656,-86.915482,40.3848651,0.001855502,-2.81E-04,-0.001484733,-114.9730416,29.797645568847656,-31.33447939,Home
87,0.9993119824279859,-0.010646642,0.032521124893021815,0.014303503973970136,-0.065362122,0.020349704705685086,-3.11230259,-53.3537709,-13.81649968,-3.055611932,-143.8888889,9.892210534475382,-0.201563364,0.6460563106444276,-0.021160223,0.01591613,-5.49E-05,9.892210534475382,-0.201563364,0.6460563106444276,2.194305687455587E-4,-2.71E-04,-5.49E-05,0,0.1063014566898346,1.0647797584533691,10.196999549865723,0.007627803,0,160.09999084472656,-86.915482,40.3848651,-6.60E-04,9.490723170123054E-5,-0.001363913,-114.9141158,29.803745574951172,-31.37571541,Home
88,0.9993067551585078,-0.010667189,0.032579347,0.014519016,-0.065483649,0.020374955,-3.11186915,-53.36462894,-13.84870778,-3.026331911,-146.75,9.890491457818781,-0.203096628,0.6466603244392617,-0.021278834,0.015833101904435643,1.6309027627870006E-5,9.890491457818781,-0.203096628,0.6466603244392617,1.0081945050471616E-4,-3.54E-04,1.6309027627870006E-5,0,0.1063014566898346,1.0747649669647217,10.196999549865723,0.009635839,0,160.09999084472656,-86.9154819,40.3848652,-5.77E-04,-0.00122394,-0.001848738,-114.9248518,29.771415424346923,-31.34594744,Home
89,0.99930907,-0.010745799,0.032543972640940284,0.014380217538875284,-0.065412457,0.020542211,-3.112142188,-53.35511295,-13.8393137,-3.040239923,-142,9.895346900791798,-0.203816798,0.6473340299522993,-0.021302556,0.015963574,-6.67E-05,9.895346900791798,-0.203816798,0.6473340299522993,7.709722685654765E-5,-2.24E-04,-6.67E-05,0,0.1063014566898346,1.0847291946411133,10.204000473022461,0.004218172,0,160.09999084472656,-86.915482,40.3848652,0.001983504,-2.40E-04,-6.18E-04,-114.9152134,29.781175518035887,-31.36046534,Home
90,0.9993056614422103,-0.010729945,0.032585104,0.014535039,-0.065497451,0.02049917,-3.111832839,-53.38622303,-13.84004563,-3.074643931,-149.4444444,9.896530619034401,-0.203021797,0.6474425941705704,-0.021302556,0.015975435,-5.49E-05,9.896530619034401,-0.203021797,0.6474425941705704,7.709722685654765E-5,-2.12E-04,-5.49E-05,0,0.1063014566898346,1.0947649478912354,10.210000038146973,0.003297008,0,160.09999084472656,-86.9154819,40.3848652,0.001160631,1.6573577829935018E-4,-0.001429962,-114.9459577,29.77971143722534,-31.39486938,Home
91,0.9993088442145042,-0.010650913,0.032556934589610516,0.014436768,-0.065436627,0.020348469,-3.112035131,-53.29533264,-13.77709371,-3.045729909,-147,9.917817199114458,-0.200192718,0.6484491356368204,-0.021338139,0.016094046364565497,-4.30E-05,9.917817199114458,-0.200192718,0.6484491356368204,4.151389138429489E-5,-9.34E-05,-4.30E-05,0,0.10000000149011612,1.104740858078003,11.685999870300293,0.012748735025525093,0,160.09999084472656,-86.9154818,40.3848654,0.013244017813969585,0.001641705,-5.53E-04,-114.8555558,29.843273334503174,-31.36522337,Home
92,0.9993204931610996,-0.01044,0.032443955974671444,0.014033049146093211,-0.065195987,0.019956551510298137,-3.112858508,-53.36658096,-13.81576769,-2.99522191,-129.8888889,9.942509290084098,-0.197823127,0.6464977044503666,-0.021207667,0.015975435,-4.30E-05,9.942509290084098,-0.197823127,0.6464977044503666,1.719861214492217E-4,-2.12E-04,-4.30E-05,0,0.1063014566898346,1.1149208545684814,11.961000442504883,0.009192441,0,160.09999084472656,-86.9154818,40.3848654,0.011591818726178512,7.140023037067895E-4,-0.00166743,-114.9266821,29.804477462768556,-31.31386143,Home
93,0.9993270571949413,-0.01040037,0.032370586,0.013762375,-0.065042593,0.019897058461476297,-3.113403786,-53.37060692,-13.84626775,-3.070007915,-148.5,9.937877432813922,-0.198032209,0.6465441677176836,-0.02123139,0.016200796,4.0031250145792674E-5,9.937877432813922,-0.198032209,0.6465441677176836,1.482638978010532E-4,1.334377510238041E-5,4.0031250145792674E-5,0,0.1414213627576828,1.1248266696929932,11.970999717712402,0.009232259,0,160.09999084472656,-86.9154818,40.3848655,-0.001441715,8.547306060791016E-5,-6.62E-04,-114.9307073,29.77336742401123,-31.39084341,Home
94,0.9993336102337513,-0.010339253,0.032298682,0.013498888468568764,-0.064891693,0.019794021054957676,-3.113936038,-53.37731693,-13.83382372,-3.046461921,-158,9.942468680224373,-0.196870644,0.6450341320732265,-0.02123139,0.016117768588213666,-7.41E-06,9.942468680224373,-0.196870644,0.6450341320732265,1.482638978010532E-4,-6.97E-05,-7.41E-06,0,0.1414213627576828,1.134818434715271,11.98900032043457,0.006818727,0,160.09999084472656,-86.9154817,40.3848655,0.002830598,8.326088919222934E-5,-8.41E-04,-114.9371738,29.78605529785156,-31.36656538,Home
95,0.9993333484117801,-0.010318802,0.032304179890511125,0.013521123274516027,-0.064902539,0.019751549931243062,-3.113892801,-53.35572296,-13.85968768,-2.990707924,-146.375,9.943845128550112,-0.196243399,0.6454987583808529,-0.021238689,0.016011246668103222,-9.40E-05,9.943845128550112,-0.196243399,0.6454987583808529,1.4096475206315517E-4,-1.76E-04,-9.40E-05,0,0.1063014566898346,1.1448346376419067,11.998000144958496,0.003636624,0,160.09999084472656,-86.9154817,40.3848655,8.662113776573768E-4,5.246859330397386E-4,-5.96E-04,-114.9161899,29.760313415527342,-31.31020142,Home
96,0.9993311652859438,-0.010318261,0.032330485,0.013619445653144017,-0.0649571,0.019743351247704145,-3.11369574,-53.37402294,-13.82394172,-3.095261927,-153.5555556,9.940003209901088,-0.198055439,0.6460795402526855,-0.021266973,0.016058463,8.747569800725261E-5,9.940003209901088,-0.198055439,0.6460795402526855,1.1268056232880041E-4,-1.29E-04,8.747569800725261E-5,0,0.1063014566898346,1.1046394109725952,10.307000160217285,0.062253355979919434,0,160.09999084472656,-86.915483,40.3848652,-0.001565072,-0.001450836,-4.84E-04,-114.9341238,29.795815563201906,-31.41536535,Home
97,0.9993329881464393,-0.010269843,0.032313916217354896,0.013561561206373775,-0.064921397,0.019650794,-3.113814953,-53.34364498,-13.8487077,-2.966551902,-155.75,9.936489494101515,-0.196034318,0.6453593714723309,-0.021089056,0.016188935250116204,1.7050348077584239E-4,9.936489494101515,-0.196034318,0.6453593714723309,2.905972396900642E-4,1.4826587573127839E-6,1.7050348077584239E-4,0,0.1063014566898346,1.1147611141204834,10.331999778747559,0.045057245,0,160.09999084472656,-86.9154834,40.3848651,-0.002039187,-4.11E-04,-6.52E-04,-114.9038676,29.771781520843504,-31.28689938,Home
98,0.9993381205114346,-0.010279183,0.032250698077157865,0.013324580489865784,-0.064790502,0.019686574441860023,-3.11428942,-53.37646294,-13.80917968,-3.05914993,-152.8888889,9.934526295337863,-0.197056495,0.6447088932528079,-0.021219528,0.016200796330293404,4.0031251841161433E-5,9.934526295337863,-0.197056495,0.6447088932528079,1.6012500962513744E-4,1.3343773972134567E-5,4.0031251841161433E-5,0,0.1063014566898346,1.124686837,10.354999542236328,0.018641643226146698,0,160.09999084472656,-86.9154833,40.3848651,-0.001208166,-0.001134185,1.8523098195640786E-4,-114.9366856,29.810821418762206,-31.37888733,Home
99,0.9993344180792281,-0.010305463,0.032292691,0.013479306697122101,-0.064878338,0.019727917297661882,-3.113977516,-53.33620289,-13.83833767,-3.038897932,-137,9.932681496,-0.19671763,0.6454409045668749,-0.021172084,0.016165212999342135,2.8170140017077183E-5,9.932681496,-0.19671763,0.6454409045668749,2.0756945692147446E-4,-2.22E-05,2.8170140017077183E-5,0,0.1063014566898346,1.134803056716919,10.361000061035156,0.005722743,0,160.09999084472656,-86.9154833,40.3848652,-0.001254619,-4.32E-04,1.472090054484247E-4,-114.8961818,29.781663494110106,-31.3587574,Home
100,0.9993318979022572,-0.010277033,0.032326236982079384,0.013607004874394936,-0.064947153,0.019661872331233857,-3.113723382,-53.35974918,-13.8604197,-3.082329946,-151.25,9.930123875,-0.196150475,0.6441978042565503,-0.021278834,0.015963574129979587,6.375347548932994E-5,9.930123875,-0.196150475,0.6441978042565503,1.0081945050471616E-4,-2.24E-04,6.375347548932994E-5,0,0.1063014566898346,1.1447046995162964,10.378000259399414,0.002963078,0,160.09999084472656,-86.9154832,40.3848652,-0.001606913,-4.57E-04,-0.001491421,-114.9196056,29.759093475341796,-31.40218937,Home
101,0.9993287174447069,-0.010430008,0.032347378,0.01367319,-0.064995264,0.019962746,-3.113580607,-53.39305492,-13.81784171,-2.99888191,-144.2222222,9.895300244822085,-0.201168432,0.6443836538537034,-0.021255112,0.016070324122833397,-3.11E-05,9.895300244822085,-0.201168432,0.6443836538537034,1.2454167415288468E-4,-1.17E-04,-3.11E-05,0,0.086023256,1.1546286344528198,10.38599967956543,0.00431772,0,160.09999084472656,-86.9154831,40.3848652,-0.018727284,-0.002945394,-9.14E-04,-114.9533996,29.802403450012207,-31.31874136,Home
102,0.999317463,-0.010691505,0.032451885019980586,0.014041276965109468,-0.065219597,0.020458501,-3.112825364,-53.36206707,-13.83492175,-2.930683908,-133.75,9.875576769263999,-0.204722819,0.6457543031683246,-0.021373723,0.016188935277242106,-1.14E-04,9.875576769263999,-0.204722819,0.6457543031683246,5.930555912042127E-6,1.4826548014523334E-6,-1.14E-04,0,0.1063014566898346,1.1645692586898804,10.406000137329102,0.003140053,0,160.09999084472656,-86.9154831,40.3848652,-0.010331895,-0.002178655,1.807936186929351E-4,-114.9218015,29.78520139694214,-31.25139738,Home
103,0.9993171252093269,-0.010800916,0.032443601710414424,0.014001128697785938,-0.065205472,0.020680058837949652,-3.112898614,-53.42550713,-13.85907767,-2.998393912,-140.7777778,9.877946316617207,-0.205001595,0.6444068863553908,-0.021480473,0.016141490793777902,-1.50E-04,9.877946316617207,-0.205001595,0.6444068863553908,-1.01E-04,-4.60E-05,-1.50E-04,0,0.086023256,1.1745803356170654,10.395000457763672,0.001554515,0,160.09999084472656,-86.9154831,40.3848652,-4.81E-04,-1.85E-04,-4.43E-04,-114.9860957,29.76165536880493,-31.31715544,Home
104,0.9993158596066328,-0.010825484,0.032455737,0.014044303527603356,-0.06523139,0.020726002018468883,-3.112810403,-53.39073708,-13.84211973,-2.984485912,-142.75,9.884637009,-0.204188499,0.6456846073993201,-0.021426642,0.016163958,-3.52E-05,9.884637009,-0.204188499,0.6456846073993201,-4.70E-05,-2.35E-05,-3.52E-05,0,0.086023256,1.184617280960083,10.37600040435791,5.951207131147385E-4,0,160.09999084472656,-86.9154831,40.3848652,0.003513969,8.33227657354795E-4,2.696428161401015E-4,-114.9498618,29.778613471984862,-31.30385738,Home
105,0.9993156837028208,-0.010766251,0.032464489485453635,0.014081974206401886,-0.065247895,0.020604895120396198,-3.112738806,-53.36999687,-13.84663373,-3.005835912,-128.8888889,9.887703636317577,-0.204072342,0.6453361354985283,-0.021504195,0.016153351837787235,-1.14E-04,9.887703636317577,-0.204072342,0.6453361354985283,-1.25E-04,-3.41E-05,-1.14E-04,0,0.086023256,1.1945487260818481,10.369000434875488,1.742398162605241E-4,0,160.09999084472656,-86.9154831,40.3848652,0.001930181,-3.25E-05,-4.86E-04,-114.930464,29.773977546691896,-31.32545139,Home
106,0.9993227928587534,-0.010692502,0.032388599,0.013805085133073979,-0.06508815,0.020477688084672957,-3.113298844,-53.37817085,-13.83797166,-3.024867904,-139.875,9.923322946,-0.201540133,0.6452664455163826,-0.021326278,0.016177074106645237,-1.38E-04,9.923322946,-0.201540133,0.6452664455163826,5.337500320837914E-5,-1.04E-05,-1.38E-04,0,0.086023256,1.2046700716018677,12.236000061035156,0.011395929381251335,0,160.09999084472656,-86.915483,40.3848654,0.018792106109915427,0.001622329,-1.92E-04,-114.938272,29.781541481018067,-31.34375135,Home
107,0.9993304801218718,-0.010546381,0.032313152,0.013535758914444054,-0.064927396,0.020205247,-3.113848466,-53.35364914,-13.8186957,-3.091845925,-157.6666667,9.933312462,-0.199704861,0.6464977032929948,-0.021361862,0.016319407,4.447915803785753E-6,9.933312462,-0.199704861,0.6464977032929948,1.779166773612638E-5,1.319548922129771E-4,4.447915803785753E-6,0,0.086023256,1.2147074937820435,12.18999958,0.008682106,0,160.09999084472656,-86.915483,40.3848654,0.007212352,0.001188768,0.001235244,-114.9136277,29.800939540863038,-31.41243736,Home
108,0.9993361483499842,-0.010355279,0.03226616,0.013376085747720546,-0.064824642,0.019834918123715132,-3.114181151,-53.349501,-13.81857369,-3.10258194,-136,9.945468384,-0.196406019,0.6453129064689562,-0.021290695,0.016248240804715642,2.8170140017077183E-5,9.945468384,-0.196406019,0.6453129064689562,8.89583386806319E-5,6.07882190079799E-5,2.8170140017077183E-5,0,0.086023256,1.224662423,12.152999877929688,0.010458734817802906,0,160.09999084472656,-86.9154829,40.3848655,0.005754832,0.001071861,1.963162885128873E-4,-114.9093581,29.801915550231932,-31.42231951,Home
109,0.9993372733153186,-0.010318614,0.032256611,0.013343432059204116,-0.064803834,0.019764009392955927,-3.11424904,-53.36096901,-13.79051374,-3.001687934,-136,9.943567386040321,-0.19738486,0.6450497679985486,-0.021278834,0.016177074142813105,-4.30E-05,9.943567386040321,-0.19738486,0.6450497679985486,1.0081945050471616E-4,-1.04E-05,-4.30E-05,0,0.086023256,1.2346829175949097,12.130999565124512,0.006088372,0,160.09999084472656,-86.9154829,40.3848655,-1.10E-04,-5.08E-04,-9.14E-05,-114.9214359,29.829609432220458,-31.3210593,Home
110,0.9993346275635135,-0.010337222,0.032286594540459436,0.013453904186709992,-0.064866554,0.019793215035958198,-3.114026345,-53.3724371,-13.8276017,-2.960939903,-134.5555556,9.939370174,-0.197010032,0.6450573645749138,-0.021338139,0.01612963,2.8170140582200103E-5,9.939370174,-0.197010032,0.6450573645749138,4.151389138429489E-5,-5.78E-05,2.8170140582200103E-5,0,0.086023256,1.2446333169937134,12.095999717712402,0.005734464,0,160.09999084472656,-86.9154828,40.3848655,-0.001751178,-3.45E-05,-5.73E-04,-114.9327819,29.79215551376343,-31.28043339,Home
111,0.9993331264523626,-0.010328105,0.032305653,0.013525833113534936,-0.064905863,0.019769788656419922,-3.113882752,-53.37987881,-13.86090768,-2.9710659,-147.875,9.919065873599747,-0.198891766,0.6454987589595387,-0.021243251,0.016105907508036466,4.0031251276038514E-5,9.919065873599747,-0.198891766,0.6454987589595387,1.3640278597696893E-4,-8.15E-05,4.0031251276038514E-5,0,0.086023256,1.1039928197860718,10.130000114440918,0.036693078,0,160.09999084472656,-86.9154827,40.3848661,-0.012459366,-0.002053978,1.2067220743420054E-4,-114.9402242,29.75970354,-31.29055941,Home
112,0.9993318325107537,-0.010482859,0.032303991,0.013506828707832735,-0.064906634,0.020080405,-3.113910657,-53.33168903,-13.83052973,-2.992537909,-137,9.911065601608128,-0.199007923,0.6432685504839258,-0.021326278,0.016236379688370575,-5.49E-05,9.911065601608128,-0.199007923,0.6432685504839258,5.337500320837914E-5,4.8927106618772724E-5,-5.49E-05,0,0.086023256,1.1140536069869995,10.079000473022461,0.025331221520900726,0,160.09999084472656,-86.9154827,40.3848662,-0.001093939,3.363148680011046E-4,-8.48E-04,-114.8911797,29.789593448638914,-31.31300745,Home
113,0.999337814,-0.010386297,0.032242397526995495,0.013284790875891654,-0.064776165,0.019903484,-3.11436215,-53.39671501,-13.82162375,-3.012301936,-135,9.925021653036469,-0.197916052,0.6445695040295425,-0.0213914,0.016422393794458073,-6.16E-12,9.925021653036469,-0.197916052,0.6445695040295425,-1.17E-05,2.3494128254242241E-4,-6.16E-12,0,0.086023256,1.1239955425262451,10.048999786376953,0.017090207,0,160.09999084472656,-86.9154827,40.3848663,0.003958299,-1.72E-04,0.001050084,-114.9568157,29.798011550903322,-31.33167341,Home
114,0.9993370534146874,-0.010365165,0.032254076445276295,0.013330143632240665,-0.064799832,0.019857985247830744,-3.114272615,-53.3037508,-13.83614174,-3.058905916,-114.6666667,9.932966806,-0.198130941,0.6450834968715038,-0.021219528,0.016200796,1.2305903008876784E-4,9.932966806,-0.198130941,0.6450834968715038,1.6012500962513744E-4,1.3343777927995017E-5,1.2305903008876784E-4,0,0.12727922201156616,1.1340662240982056,10.015000343322754,0.009107241,0,160.09999084472656,-86.9154826,40.3848663,0.004751168,-6.46E-04,9.532744444689705E-4,-114.8634861,29.78312749862671,-31.37925339,Home
115,0.9993385747798438,-0.01029616,0.032243222,0.013295259,-0.06477545,0.019722613,-3.114347094,-53.393909,-13.82955365,-3.020963919,-119.25,9.932176932547856,-0.196568638,0.6444998105752815,-0.021397445,0.016319407,-3.11E-05,9.932176932547856,-0.196568638,0.6444998105752815,-1.78E-05,1.3195489277810003E-4,-3.11E-05,0,0.086023256,1.1440738439559937,9.965999603271484,0.004069357,0,160.09999084472656,-86.9154826,40.3848663,9.219160357725272E-5,-3.59E-04,3.62861503675146E-4,-114.9538873,29.79154544830322,-31.34155535,Home
116,0.999331272,-0.010446338,0.032314872,0.013550460410928264,-0.064928232,0.020004271,-3.113825592,-53.41623489,-13.84004569,-2.913603923,-150.7777778,9.900713152098424,-0.2007735,0.6441048788792879,-0.021338139,0.016011018541108056,-9.04E-05,9.900713152098424,-0.2007735,0.6441048788792879,4.151389138429489E-5,-1.76E-04,-9.04E-05,0,0.10000000149011612,1.1539870500564575,9.965000153,0.001521753,0,160.09999084472656,-86.9154826,40.3848663,-0.017901347,-0.002031474,-6.79E-04,-114.9765796,29.778979473114013,-31.23309746,Home
117,0.9993217089801159,-0.010679583,0.032403062,0.013860146017763222,-0.065117827,0.020447877,-3.113189308,-53.41794296,-13.87213168,-2.968381925,-142.125,9.877365565994412,-0.204049112,0.6445230419195972,-0.02123139,0.016141490793777902,-3.11E-05,9.877365565994412,-0.204049112,0.6445230419195972,1.482638978010532E-4,-4.60E-05,-3.11E-05,0,0.10000000149011612,1.164007544517517,9.960000038146973,0.006698165,0,160.09999084472656,-86.9154825,40.3848664,-0.011518127,-0.001504002,-2.10E-04,-114.9775558,29.748113555908205,-31.28750923,Home
118,0.9993184729687219,-0.010775339,0.032430516682492874,0.013954491869917193,-0.065177558,0.020632345,-3.112993812,-53.40025311,-13.8628597,-2.965697911,-123.1111111,9.877111590825594,-0.205092509,0.6450497708641566,-0.021421167,0.016070324,-7.41E-06,9.877111590825594,-0.205092509,0.6450497708641566,-4.15E-05,-1.17E-04,-7.41E-06,0,0.12041594833135605,1.174009919166565,9.956000328063965,0.00899591,0,160.09999084472656,-86.9154825,40.3848665,-0.001306626,-9.37E-04,3.7075825107907783E-4,-114.9603532,29.758361415863035,-31.2875094,Home
119,0.9993126357643349,-0.010812004,0.032495021,0.014191950336822029,-0.065312648,0.020688275074206508,-3.112515278,-53.42575077,-13.85431968,-3.054635928,-146.375,9.884125848,-0.2049319,0.6450108995715391,-0.021314417,0.016117768561087764,-9.04E-05,9.884125848,-0.2049319,0.6450108995715391,6.52361150324634E-5,-6.97E-05,-9.04E-05,0,0.12041594833135605,1.1840335130691528,9.954000473022461,0.005355034,0,160.09999084472656,-86.9154825,40.3848665,0.002962511,-9.21E-05,-0.00124219,-114.9859736,29.76641347885132,-31.37449539,Home
120,0.9993152427441866,-0.01083548,0.032461886,0.014066379200847983,-0.065244453,0.020744366,-3.112765497,-53.41050098,-13.80588575,-3.049023924,-148.7777778,9.888400448178782,-0.204420813,0.6457543020109529,-0.021302556,0.016117769,-1.50E-04,9.888400448178782,-0.204420813,0.6457543020109529,7.709722685654765E-5,-6.97E-05,-1.50E-04,0,0.10000000149011612,1.1940025091171265,9.953000069,0.007376223,0,160.09999084472656,-86.9154825,40.3848666,0.002793849,9.739137100941926E-4,7.220726568722031E-5,-114.9706017,29.813871517181397,-31.36961544,Home
121,0.9993114957531679,-0.010745502,0.032515829302442886,0.014275243062779162,-0.065353981,0.020549308544802435,-3.112352686,-53.45942287,-13.82186766,-3.038043919,-153.2222222,9.905940166954855,-0.20202799,0.6469390988349915,-0.021290695,0.016011018595359857,2.817013888683134E-5,9.905940166954855,-0.20202799,0.6469390988349915,8.89583386806319E-5,-1.76E-04,2.817013888683134E-5,0,0.12727922201156616,1.204039216041565,11.98799991607666,0.010375235229730606,0,160.09999084472656,-86.9154824,40.3848667,0.011548662648617643,0.001539762,-3.36E-04,-115.0196458,29.798133487701417,-31.3581473,Home
122,0.9993232615943094,-0.010501414,0.032404372,0.013880018497482665,-0.065115562,0.020090399599335725,-3.113161247,-53.3636528,-13.81332771,-3.02999193,-150.25,9.943778297276173,-0.197753433,0.6457310695092655,-0.021433028,0.016153351892039036,-6.67E-05,9.943778297276173,-0.197753433,0.6457310695092655,-5.34E-05,-3.41E-05,-6.67E-05,0,0.12727922201156616,1.2140867710113525,12.001999855041504,0.009017119,0,160.09999084472656,-86.9154823,40.3848667,0.017449675,0.001906241,-0.001542424,-114.9235101,29.804843502044676,-31.34863134,Home
123,0.9993346557021141,-0.010414691,0.032277559,0.013413761554357525,-0.064849911,0.019950916793627236,-3.114101729,-53.35974884,-13.84870775,-3.028161922,-150.7777778,9.947056825878551,-0.198032209,0.6455916831794294,-0.021297424,0.016281429078215018,-1.06E-04,9.947056825878551,-0.198032209,0.6455916831794294,8.222943870350718E-5,9.397652376299867E-5,-1.06E-04,0,0.12041594833135605,1.2240597009658813,12.03499984741211,0.005028516,0,160.09999084472656,-86.9154823,40.3848667,0.003648996,7.469950673671869E-4,1.7149517169365517E-5,-114.9198501,29.771171493530275,-31.3472893,Home
124,0.9993331710111748,-0.01041697,0.032295323,0.013479914715133825,-0.064886843,0.019950691,-3.113968956,-53.42013905,-13.84651173,-2.988389914,-125.625,9.943885738409838,-0.19824129,0.6457775339339543,-0.021409306,0.016200796303167505,-6.67E-05,9.943885738409838,-0.19824129,0.6457775339339543,-2.97E-05,1.3343777362872096E-5,-6.67E-05,0,0.12727922201156616,1.2340021133422852,11.76200008392334,0.008243075,0,160.09999084472656,-86.9154822,40.3848668,-5.78E-04,4.857373469084212E-4,-2.70E-04,-114.9799951,29.773489437103272,-31.30934731,Home
125,0.9993346964271324,-0.01035189,0.032284099,0.013443370367789153,-0.064861775,0.019823285651583117,-3.1140465,-53.40196095,-13.8178417,-2.993635924,-132.1111111,9.940668171,-0.197291712,0.6449644386189656,-0.021338139,0.016070324050497662,1.4678125599742802E-4,9.940668171,-0.197291712,0.6449644386189656,4.151389138429489E-5,-1.17E-04,1.4678125599742802E-4,0,0.092195444,1.244012475013733,12.109000205993652,0.0050931,0,160.09999084472656,-86.9154822,40.3848668,-0.001887433,1.3055182197718946E-4,-7.10E-04,-114.9615734,29.802647552490235,-31.31508139,Home
126,0.9993325020503072,-0.010345772,0.032311287428279524,0.013545443,-0.064918024,0.019803678653049238,-3.113842272,-53.35523506,-13.84175365,-2.976921911,-142.625,9.931735594,-0.197640181,0.6455452181760547,-0.021278834,0.016082185203010597,8.7475695181638E-5,9.931735594,-0.197640181,0.6455452181760547,1.0081945050471616E-4,-1.05E-04,8.7475695181638E-5,45,0.10000000149011612,1.103633165359497,10.102999687194824,0.10624074190855026,262.8031311035156,160.1999969482422,-86.9154845,40.3848666,-0.004464446,-5.38E-04,-2.79E-04,-114.9148478,29.77727148,-31.29775732,Home
127,0.9993298777098795,-0.010285922,0.032344792,0.013701947604857602,-0.064986389,0.019672923368736377,-3.113532622,-53.4269709,-13.82223366,-3.033163922,-128,9.932764970339262,-0.19690457,0.6454984196103536,-0.021266973,0.015738213,5.026146158060619E-4,9.932764970339262,-0.19690457,0.6454984196103536,1.1268056232880041E-4,-4.49E-04,5.026146158060619E-4,0,0.1414213627576828,1.1136071681976318,10.095999717712402,0.075748481,0,160.1999969482422,-86.9154851,40.3848665,2.4273326096025487E-4,-0.00124047,-0.001064311,-114.9873159,29.797401485443114,-31.35277931,Home
128,0.9993207159551601,-0.010137953,0.032505114,0.014096738,-0.065310534,0.019346899145002504,-3.112749864,-53.37621906,-13.87530374,-3.120393944,-144.375,9.933448911870567,-0.192410237,0.6481296987209505,-0.021243251,0.016011018523024122,2.8170137191462576E-5,9.933448911870567,-0.192410237,0.6481296987209505,1.3640278597696893E-4,-1.76E-04,2.8170137191462576E-5,0,0.10000000149011612,1.1236188411712646,10.097000122070312,0.03275178,0,160.1999969482422,-86.9154851,40.3848665,2.854171308498938E-4,2.0697228248836924E-4,-0.001079692,-114.9365635,29.74494141,-31.44061947,Home
129,0.9993058917591873,-0.010206801,0.032407134,0.015228362,-0.06513846,0.019413221012620094,-3.11048463,-53.28593891,-13.86066373,-3.055123918,-100.3333333,9.933341470736902,-0.193461452,0.6471656019826537,-0.021397445,0.015702629629726007,1.2305903347950537E-4,9.933341470736902,-0.193461452,0.6471656019826537,-1.78E-05,-4.85E-04,1.2305903347950537E-4,0,0.12727922201156616,1.133558988571167,10.093999862670898,0.011365246959030628,0,160.1999969482422,-86.915485,40.3848666,-6.28E-04,-4.03E-04,-8.61E-04,-114.8459177,29.75836145401001,-31.37534939,Home
130,0.9992780089378357,-0.010241438,0.032681957,0.016445482,-0.065713202,0.019394361,-3.108043407,-53.34205906,-13.90592566,-3.014741919,-149.6666667,9.929734767061992,-0.193943502,0.65330447,-0.021421167,0.016212657,-6.67E-05,9.929734767061992,-0.193943502,0.65330447,-4.15E-05,2.520488127523545E-5,-6.67E-05,0,0.12727922201156616,1.1436660289764404,10.06499958,0.003885662,0,160.1999969482422,-86.9154849,40.3848666,-0.001176251,-8.95E-04,-1.07E-04,-114.9020379,29.714563522338867,-31.3338694,Home
131,0.9992695358193037,-0.010406358,0.032759087,0.016700783654034716,-0.065878347,0.019704567865260595,-3.107520471,-53.42135921,-13.89653169,-3.005347924,-145.125,9.899365721397029,-0.19824129,0.6528630708027812,-0.02123139,0.015939851915373386,9.93368109615827E-5,9.899365721397029,-0.19824129,0.6528630708027812,1.482638978010532E-4,-2.48E-04,9.93368109615827E-5,0,0.12041594833135605,1.1535654067993164,10.057000160217285,0.015470864251255989,0,160.1999969482422,-86.9154846,40.3848666,-0.017264477,-0.002566622,-0.001207382,-114.9812151,29.72456745147705,-31.32593935,Home
132,0.999255647,-0.010655217,0.032878662137171395,0.017134754,-0.066135179,0.020169197026496895,-3.106633769,-53.38256287,-13.88115967,-3.033041954,-108.2222222,9.873857711125346,-0.201981527,0.6538387890000945,-0.021309171,0.016069981985940382,-5.87E-05,9.873857711125346,-0.201981527,0.6538387890000945,7.048237603157759E-5,-1.17E-04,-5.87E-05,0,0.12041594833135605,1.1635607481002808,10.055000305175781,0.011320464313030243,0,160.1999969482422,-86.9154845,40.3848666,-0.012365791,-0.002173279,-9.14E-04,-114.9429075,29.74030539,-31.3539994,Home
133,0.9992565258035382,-0.010777063,0.032868082662230555,0.017027161,-0.066116231,0.020420215915418365,-3.106840965,-53.38732101,-13.88091571,-3.04389992,-105.5,9.875646480078837,-0.202190608,0.6540014055168745,-0.021361862,0.01634313,4.447915238662831E-6,9.875646480078837,-0.202190608,0.6540014055168745,1.779166773612638E-5,1.5567711699139146E-4,4.447915238662831E-6,0,0.092195444,1.1735728979110718,10.055000305175781,0.007617814,0,160.1999969482422,-86.9154845,40.3848667,-6.28E-04,-1.63E-04,1.9209130296429384E-4,-114.9472998,29.738719482421875,-31.36327133,Home
134,0.9992524020880171,-0.010774448,0.032914102,0.017181350569267874,-0.066211367,0.02040318,-3.106531905,-53.39866695,-13.89689766,-3.047803919,-123.1111111,9.881198697877162,-0.201470439,0.6552094307917993,-0.021350001,0.016058463,-1.14E-04,9.881198697877162,-0.201470439,0.6552094307917993,2.9652779560210635E-5,-1.29E-04,-1.14E-04,0,0.10000000149011612,1.1835790872573853,10.043999671936035,0.004172089,0,160.1999969482422,-86.9154845,40.3848667,0.002544718,4.387087034947664E-4,2.9903418809464836E-4,-114.9581577,29.72200553894043,-31.3677853,Home
135,0.999249762,-0.010773835,0.032952067704455364,0.017262200454195725,-0.066288962,0.020395258730910356,-3.106369502,-53.34449898,-13.91556367,-3.06427393,-87.75,9.886629076837336,-0.202530367,0.6555956497933101,-0.021160223,0.015963574075727786,1.8236458751382035E-4,9.886629076837336,-0.202530367,0.6555956497933101,2.194305687455587E-4,-2.24E-04,1.8236458751382035E-4,0,0.10000000149011612,1.1935518980026245,10.038999557495117,0.004748101,0,160.1999969482422,-86.9154844,40.3848667,0.003033203,-5.84E-04,-4.26E-04,-114.9047216,29.704559421539308,-31.38486538,Home
136,0.999253363,-0.010645838,0.032933320994805365,0.017167479270002218,-0.066244878,0.020146354110640228,-3.10656785,-53.30436096,-13.88067165,-3.079645951,-115,9.908187819916067,-0.198159981,0.6544515102812387,-0.021361862,0.016117768,4.4479163689086735E-6,9.908187819916067,-0.198159981,0.6544515102812387,1.779166773612638E-5,-6.97E-05,4.4479163689086735E-6,0,0.092195444,1.2035727500915527,12.335000038146973,0.013009976595640182,0,160.1999969482422,-86.9154843,40.3848669,0.013763649949749697,0.00153693,-0.001845669,-114.8648276,29.739451465606688,-31.40023741,Home
137,0.9992702609127008,-0.010497797,0.032791994078066745,0.016535156976106097,-0.065944132,0.019897135697956224,-3.107844899,-53.30911903,-13.91641771,-3.078669932,-116.5,9.943728391940777,-0.196375388,0.6549201607704163,-0.021207667,0.016117768479710064,4.447912978171145E-6,9.943728391940777,-0.196375388,0.6549201607704163,1.719861214492217E-4,-6.97E-05,4.447912978171145E-6,0,0.092195444,1.2135447263717651,12.012999534606934,0.009378745,0,160.1999969482422,-86.9154843,40.3848669,0.016300562515999508,0.001459895,-4.71E-04,-114.8692199,29.701997489929198,-31.39804138,Home
138,0.9992734112785858,-0.010383152,0.032775654773978355,0.016449483220004342,-0.065905723,0.019674196,-3.108024169,-53.30997311,-13.90726771,-3.025965917,-133,9.938954798,-0.195569693,0.6556275926747368,-0.021183945,0.016200796312209473,-1.02E-04,9.938954798,-0.195569693,0.6556275926747368,1.957083450973902E-4,1.334377566750333E-5,-1.02E-04,0,0.12041594833135605,1.2235275506973267,12.036999702453613,0.004626374,0,160.1999969482422,-86.9154843,40.3848669,-5.92E-04,3.4722410938114795E-4,-4.24E-04,-114.8701953,29.712733383178712,-31.34704542,Home
139,0.9992755992898663,-0.010394481,0.032754374,0.016351599101592035,-0.065861606,0.019704001,-3.108219547,-53.31473083,-13.88982167,-3.064151947,-132.1111111,9.939201642,-0.196220169,0.6553023561690617,-0.02123139,0.016082185212052562,-3.11E-05,9.939201642,-0.196220169,0.6553023561690617,1.482638978010532E-4,-1.05E-04,-3.11E-05,0,0.086023256,1.233671784,12.37399959564209,0.006568827,0,160.1999969482422,-86.9154843,40.384867,0.001096494,-2.37E-05,-6.00E-05,-114.8745879,29.73042341,-31.3843774,Home
140,0.9992789186320259,-0.010362844,0.032738329,0.016200035,-0.06582543,0.019651282,-3.108525017,-53.36096893,-13.87664568,-3.121369946,-146.75,9.939901537,-0.19536061,0.6537458642015179,-0.021361862,0.016224518572025507,-7.41E-06,9.939901537,-0.19536061,0.6537458642015179,1.779166773612638E-5,3.706599592493431E-5,-7.41E-06,0,0.10000000149011612,1.2436692714691162,12.38599967956543,0.003970445,0,160.1999969482422,-86.9154843,40.384867,4.3130152433821297E-4,2.745566437545332E-4,-0.001183027,-114.9215579,29.743111534118654,-31.44061954,Home
141,0.9992779842936076,-0.010357802,0.032757260299359374,0.016222133,-0.065863576,0.019639112771703646,-3.108480797,-53.35218517,-13.91202569,-3.019499922,-154.6666667,9.928041782,-0.195407073,0.6555346707695896,-0.02127393,0.01611697,-4.48E-12,9.928041782,-0.195407073,0.6555346707695896,1.0572356404736638E-4,-7.05E-05,-4.48E-12,0,0.10000000149011612,1.1027053594589233,10.090999603271484,0.005045721,0,160.1999969482422,-86.9154844,40.3848669,-0.007245926,2.871167201262254E-5,2.448977186129643E-4,-114.9122855,29.70980556488037,-31.33887133,Home
142,0.9992752815913228,-0.010414322,0.032787052,0.01629294,-0.065926527,0.019746435715735536,-3.108334863,-53.30497101,-13.86420168,-3.050609925,-154.5,9.914303399984119,-0.19752112,0.6532580053922042,-0.021243251,0.016105907489952533,7.56145873134142E-5,9.914303399984119,-0.19752112,0.6532580053922042,1.3640278597696893E-4,-8.15E-05,7.56145873134142E-5,0,0.12041594833135605,1.112729549407959,10.085000038146973,0.00806403,0,160.1999969482422,-86.9154843,40.3848668,-0.006515855,-0.001283536,-0.001612217,-114.865316,29.755555477142334,-31.3698595,Home
143,0.9992763677847039,-0.010489972,0.032763244,0.016225579,-0.065880169,0.019902869371823895,-3.108464989,-53.42282288,-13.91446567,-3.020597928,-135.8888889,9.907287699504963,-0.198798841,0.653234776,-0.021314417,0.016177074,1.2305903460975122E-4,9.907287699504963,-0.198798841,0.653234776,6.52361150324634E-5,-1.04E-05,1.2305903460975122E-4,0,0.086023256,1.1227062940597534,10.083999633789062,0.005692389,0,160.1999969482422,-86.9154844,40.3848668,-0.004810991,-0.001180567,-5.98E-04,-114.9836555,29.70431543,-31.34106731,Home
144,0.9992738991107756,-0.010520107,0.032797709,0.016288371,-0.065951426,0.019957818,-3.108336743,-53.40891483,-13.88555169,-3.075619931,-150.375,9.910470323655211,-0.198705916,0.6542104881944009,-0.021314417,0.016105907,7.561458674829128E-5,9.910470323655211,-0.198705916,0.6542104881944009,6.52361150324634E-5,-8.15E-05,7.561458674829128E-5,0,0.10000000149011612,1.1327687501907349,10.076000213623047,0.003267891,0,160.1999969482422,-86.9154844,40.3848669,0.002193525,-6.17E-04,-7.88E-05,-114.9690161,29.73481544494629,-31.39450331,Home
145,0.9992765471773241,-0.010525615,0.032783984,0.016149333524472505,-0.065921377,0.019978447627384686,-3.108614653,-53.32802868,-13.88347774,-3.118319931,-151.6666667,9.914953861421752,-0.198543298,0.6536761690111994,-0.021136501,0.016141490784735934,4.0031251841161433E-5,9.914953861421752,-0.198543298,0.6536761690111994,2.4315279239372722E-4,-4.60E-05,4.0031251841161433E-5,0,0.092195444,1.1427303552627563,10.083000183105469,0.002893176,0,160.1999969482422,-86.9154844,40.3848669,0.002367427,-1.63E-04,-5.99E-04,-114.8872759,29.73591360092163,-31.43756941,Home
146,0.9992731161487912,-0.010570978,0.032825281,0.016247555215671224,-0.066007548,0.020061268154712555,-3.108414418,-53.36780117,-13.8772557,-3.045973926,-135.25,9.898785196817839,-0.200997101,0.6537237448187975,-0.02112464,0.016058463033614228,5.189236366524569E-5,9.898785196817839,-0.200997101,0.6537237448187975,2.5501390421781147E-4,-1.29E-04,5.189236366524569E-5,0,0.15556348860263824,1.152779221534729,10.121000289916992,0.007343091,0,160.1999969482422,-86.9154843,40.384867,-0.009943342,-0.001785478,-0.001094097,-114.9271696,29.74262351989746,-31.36583323,Home
147,0.9992665312822583,-0.0106973,0.032888539,0.01644029,-0.066142402,0.020298895344716832,-3.108019324,-53.40000881,-13.90555967,-3.095871947,-123.8888889,9.880455257823167,-0.201656288,0.6549306575534413,-0.021183945,0.016082185239178464,1.6309027627870006E-5,9.880455257823167,-0.201656288,0.6549306575534413,1.957083450973902E-4,-1.05E-04,1.6309027627870006E-5,0,0.15556348860263824,1.162708044052124,10.12600040435791,0.004955675,0,160.1999969482422,-86.9154843,40.384867,-0.008329308,-5.98E-04,-1.27E-05,-114.9608418,29.714563426971434,-31.4156094,Home
148,0.9992576079461181,-0.010783726,0.032977756,0.016745187107075767,-0.066330189,0.020448421462646967,-3.107402093,-53.36292095,-13.88128166,-3.002785912,-100.7777778,9.880153276387928,-0.203143092,0.6558599049605213,-0.021302556,0.016011018595359857,-3.11E-05,9.880153276387928,-0.203143092,0.6558599049605213,7.709722685654765E-5,-1.76E-04,-3.11E-05,0,0.092195444,1.172800064086914,10.151000022888184,0.005454856,0,160.1999969482422,-86.9154842,40.384867,-8.63E-04,-7.57E-04,-4.42E-04,-114.9236316,29.73835340499878,-31.32240143,Home
149,0.999254219,-0.010788158,0.033005851,0.016888429781476273,-0.066389489,0.020446808375779866,-3.107114803,-53.33656914,-13.89152968,-2.99473393,-122.375,9.886936938,-0.202701697,0.6546751116085978,-0.021385584,0.015916129673641283,7.561458674829128E-5,9.886936938,-0.202701697,0.6546751116085978,-5.93E-06,-2.71E-04,7.561458674829128E-5,0,0.092195444,1.1827611923217773,10.145999908447266,0.003281272,0,160.1999969482422,-86.9154842,40.384867,0.003065517,-2.56E-04,-0.002359207,-114.8965472,29.729691410064696,-31.31544731,Home
150,0.9992598162114041,-0.010825853,0.032947594,0.016645482207820254,-0.06626928,0.020540266,-3.107599251,-53.38671116,-13.90104573,-3.065493944,-137.6666667,9.889655029889449,-0.203445097,0.6555346701909037,-0.021314417,0.016117768533961865,-1.14E-04,9.889655029889449,-0.203445097,0.6555346701909037,6.52361150324634E-5,-6.97E-05,-1.14E-04,0,0.092195444,1.192730427,10.157999992370605,0.005273239,0,160.1999969482422,-86.9154841,40.384867,0.00177838,5.902972036195033E-5,-5.66E-04,-114.9463233,29.718833370208742,-31.38657337,Home
151,0.9992687839728135,-0.01068653,0.032870835,0.016344317217142537,-0.066104691,0.020284290067278422,-3.108212288,-53.33400703,-13.91666173,-3.082207932,-111.125,9.918775428846045,-0.198078671,0.6541872562713993,-0.021238689,0.016246188,-7.05E-05,9.918775428846045,-0.198078671,0.6541872562713993,1.4096475206315517E-4,5.8735340224722255E-5,-7.05E-05,0,0.1063014566898346,1.2027016878128052,12.258000373840332,0.006063054,0,160.1999969482422,-86.9154841,40.3848671,0.016996411,0.003004421,-0.001132414,-114.8936196,29.702851486206054,-31.40255537,Home
152,0.9992812814064396,-0.010398905,0.032763673,0.015978393642213738,-0.065873005,0.019737119451888555,-3.10896529,-53.44222103,-13.86810569,-2.985705919,-142.6666667,9.946749057584595,-0.195244454,0.6557669836340598,-0.021172084,0.016094046,2.1794792976754818E-4,9.946749057584595,-0.195244454,0.6557669836340598,2.0756945692147446E-4,-9.34E-05,2.1794792976754818E-4,0,0.092195444,1.2128170728683472,12.595999717712402,0.004238937,0,160.1999969482422,-86.9154841,40.3848671,0.013199639551847884,0.001149874,5.989184657346856E-4,-115.0024435,29.752261390686034,-31.30654139,Home
153,0.9992754198972461,-0.010300408,0.032831989,0.016265716,-0.066011981,0.019519047106353982,-3.108396002,-53.45100502,-13.91409974,-3.022671909,-154,9.944144202667532,-0.195848468,0.6561386834070521,-0.021065334,0.015868685262512814,2.891146001469308E-4,9.944144202667532,-0.195848468,0.6561386834070521,3.143194633382327E-4,-3.19E-04,2.891146001469308E-4,0,0.12041594833135605,1.222694993019104,12.24899959564209,0.006984934,0,160.1999969482422,-86.9154841,40.3848672,2.513163298079111E-4,-0.00142026,-0.001102463,-115.0103738,29.705047416687012,-31.34240948,Home
154,0.9992724072585986,-0.010294989,0.032862724,0.016392185560707907,-0.066075765,0.019498847370732177,-3.108142901,-53.39744705,-13.88591771,-3.030723932,-155,9.938092435447915,-0.19533738,0.6560457580297896,-0.021172084,0.015987296,1.3492014699895838E-4,9.938092435447915,-0.19533738,0.6560457580297896,2.0756945692147446E-4,-2.00E-04,1.3492014699895838E-4,0,0.15556348860263824,1.2327563762664795,12.26099967956543,0.005841232,0,160.1999969482422,-86.915484,40.3848672,-0.002565699,-0.001171631,-0.001622063,-114.9575475,29.73396146774292,-31.35192543,Home
155,0.9992717620238517,-0.010344636,0.032865745,0.016394253476586157,-0.066083576,0.019597838605636533,-3.108135372,-53.36206696,-13.9086097,-3.026209936,-149.4444444,9.930032638403086,-0.195314149,0.6563466460658953,-0.021255112,0.015951713022676485,-1.93E-05,9.930032638403086,-0.195314149,0.6563466460658953,1.2454167415288468E-4,-2.36E-04,-1.93E-05,0,0.1414213627576828,1.2426890134811401,12.277999877929688,0.003362553,0,160.1999969482422,-86.915484,40.3848672,-0.00411292,-2.88E-04,-0.00101908,-114.9218014,29.71175745010376,-31.34570337,Home
156,0.9992693645282856,-0.010400263,0.032885813,0.016464788991126043,-0.066127056,0.019703683343905848,-3.107990242,-53.423311,-13.91409966,-3.016083932,-111.125,9.917602196480464,-0.196429249,0.6546983452676569,-0.021041612,0.015904269,-1.93E-05,9.917602196480464,-0.196429249,0.6546983452676569,3.380416869864012E-4,-2.83E-04,-1.93E-05,0,0.092195444,1.1025056838989258,10.156000137329102,0.022846998646855354,0,160.09999084472656,-86.9154844,40.384867,-0.006864538,-4.72E-04,-0.00240943,-114.9828015,29.70492537,-31.33618752,Home
157,0.9992642367927773,-0.010490185,0.032937269223835865,0.016615451,-0.066236158,0.019871705274992775,-3.107681967,-53.36279903,-13.90031367,-3.119173944,-124.5555556,9.913327708,-0.197916052,0.6554882022940997,-0.02123139,0.01580938,2.8170140017077183E-5,9.913327708,-0.197916052,0.6554882022940997,1.482638978010532E-4,-3.78E-04,2.8170140017077183E-5,0,0.12041594833135605,1.1125961542129517,10.145000457763672,0.014063481241464615,0,160.09999084472656,-86.9154845,40.384867,-0.001789278,-5.86E-04,-0.002027286,-114.9232658,29.71871147155762,-31.43842339,Home
158,0.9992677667765941,-0.010452245,0.032917182928728826,0.016466176426671083,-0.066191676,0.019806436525241843,-3.107983388,-53.34962303,-13.87981774,-3.093065944,-124.25,9.921179734387444,-0.196777719,0.6560922189823633,-0.021029751,0.016011018595359857,5.1892364230368614E-5,9.921179734387444,-0.196777719,0.6560922189823633,3.499027988104855E-4,-1.76E-04,5.1892364230368614E-5,0,0.12041594833135605,1.122553825378418,10.12600040435791,0.002955006,0,160.09999084472656,-86.9154844,40.384867,0.00319992,-4.07E-05,-0.001235126,-114.9094797,29.740183448791505,-31.41353533,Home
159,0.9992720426864994,-0.010427609,0.032876984,0.016301741443791436,-0.066107127,0.019769416018886474,-3.108314611,-53.37524307,-13.85468574,-3.060613942,-150,9.922991752624512,-0.196847413,0.6546518802642822,-0.021195806,0.015999157433804957,1.5864237008200399E-4,9.922991752624512,-0.196847413,0.6546518802642822,1.8384723327330595E-4,-1.88E-04,1.5864237008200399E-4,0,0.092195444,1.1325942277908325,10.107999801635742,3.794959920924157E-4,0,160.09999084472656,-86.9154844,40.384867,0.001209166,-3.40E-04,-0.002138607,-114.935588,29.765193462371826,-31.38010731,Home
160,0.9992761537432671,-0.01042127,0.032854254,0.016098289822156612,-0.066057407,0.019770945207430765,-3.108722258,-53.30887501,-13.8854297,-3.114293938,-134.25,9.923363454133561,-0.197172652,0.6551397373375384,-0.021309171,0.016011247,9.397650137543678E-5,9.923363454133561,-0.197172652,0.6551397373375384,7.048237603157759E-5,-1.76E-04,9.397650137543678E-5,0,0.092195444,1.1426316499710083,10.07699966430664,6.34887779597193E-4,0,160.09999084472656,-86.9154844,40.384867,2.7928902552678034E-4,-6.26E-04,-0.001126782,-114.8681223,29.734693546295166,-31.4330554,Home
161,0.999273563,-0.010459017,0.032883049,0.01617527,-0.066117857,0.019840345,-3.108565254,-53.46466892,-13.89238369,-3.056709929,-146.6666667,9.902458376097448,-0.199611936,0.6545821891247647,-0.021053473,0.015844963002696777,2.1794792637681065E-4,9.902458376097448,-0.199611936,0.6545821891247647,3.26180575162317E-4,-3.42E-04,2.1794792637681065E-4,0,0.092195444,1.152545452,10.074000358581543,0.004234397,0,160.09999084472656,-86.9154843,40.384867,-0.012940536,-0.002547332,-0.001833653,-115.0242819,29.728715572357178,-31.37583735,Home
162,0.999253976,-0.010665124,0.033068949230087616,0.016856625332560354,-0.066510723,0.020200827131861623,-3.107185375,-53.48931297,-13.92276179,-3.041581929,-116.625,9.868119674978905,-0.202260303,0.6565568452899896,-0.021255112,0.015833101850183842,1.1119792278566696E-4,9.868119674978905,-0.202260303,0.6565568452899896,1.2454167415288468E-4,-3.54E-04,1.1119792278566696E-4,0,0.092195444,1.162503957748413,10.088000297546387,0.005848413,0,160.09999084472656,-86.9154843,40.3848671,-0.01591576,-0.002243803,-0.00168025,-115.0491699,29.69638542175293,-31.36058741,Home
163,0.9992514385760409,-0.010837193,0.033079134,0.016878405,-0.066537687,0.020542957901375964,-3.107130051,-53.40318096,-13.9366697,-3.038165915,-135.3333333,9.863055275481882,-0.204234962,0.6556972861289978,-0.021326278,0.015987296326501855,-7.41E-06,9.863055275481882,-0.204234962,0.6556972861289978,5.337500320837914E-5,-2.00E-04,-7.41E-06,0,0.092195444,1.1725072860717773,10.116000175476074,0.003867536,0,160.09999084472656,-86.9154843,40.3848671,-0.004323126,-0.001170961,-0.001698667,-114.9637691,29.683087406158446,-31.35851337,Home
164,0.9992494224344642,-0.010863464,0.033099410314004395,0.016940856406700264,-0.06658049,0.020590603713271687,-3.107002978,-53.4068409,-13.89421369,-3.063663914,-131.4444444,9.867123640856697,-0.204284328,0.6556043659599082,-0.021290695,0.015927991,1.230590295236449E-4,9.867123640856697,-0.204284328,0.6556043659599082,8.89583386806319E-5,-2.59E-04,1.230590295236449E-4,0,0.12041594833135605,1.1825213432312012,10.152999877929688,0.003263725,0,160.09999084472656,-86.9154843,40.384867,0.001869655,-7.89E-04,-0.002074098,-114.9665759,29.725665473937987,-31.38352341,Home
165,0.9992528592498557,-0.0108236,0.033068837,0.016822913,-0.066515465,0.020519835,-3.107242137,-53.34242485,-13.88298966,-3.008763921,-118.375,9.872906997,-0.202711191,0.6552336410834239,-0.021302556,0.015797519,2.6539237649876227E-4,9.872906997,-0.202711191,0.6552336410834239,7.709722685654765E-5,-3.90E-04,2.6539237649876227E-4,0,0.12041594833135605,1.192523479,10.178999900817871,0.002916548,0,160.09999084472656,-86.9154843,40.384867,0.003049499,1.6279547538572146E-4,-0.002158199,-114.9030136,29.73676752090454,-31.32898933,Home
166,0.9992596431843286,-0.010728784,0.033005194973598405,0.016603315,-0.066380244,0.020347070871192276,-3.107688885,-53.35084293,-13.92593371,-3.056831927,-122.5555556,9.881146569853847,-0.20224288,0.6561735318702402,-0.021266973,0.016082185121632897,-5.49E-05,9.881146569853847,-0.20224288,0.6561735318702402,1.1268056232880041E-4,-1.05E-04,-5.49E-05,0,0.12041594833135605,1.2025282382965088,12.684000015258789,0.005124481,0,160.09999084472656,-86.9154842,40.3848671,0.00497606,-5.54E-04,-0.001132796,-114.9105779,29.69553150177002,-31.37656942,Home
167,0.9992720600470756,-0.010598123,0.032915761,0.016110587,-0.066186802,0.020121575306052145,-3.108684646,-53.38988312,-13.86542171,-2.999857926,-118.375,9.915316813200423,-0.19734979,0.6530227857886008,-0.021195806,0.015963574120937622,-3.11E-05,9.915316813200423,-0.19734979,0.6530227857886008,1.8384723327330595E-4,-2.24E-04,-3.11E-05,0,0.12041594833135605,1.2125561237335205,13.149999618530273,0.004432963,0,160.09999084472656,-86.9154842,40.3848671,0.018540178687827102,0.001787079,-0.00193925,-114.9502273,29.755921478271485,-31.32166941,Home
168,0.9992875925545553,-0.010505127,0.032754248821908985,0.015526651,-0.065848769,0.019979475,-3.109861635,-53.28972084,-13.77794772,-3.105631926,-86.33333333,9.929572207256427,-0.198154174,0.6531215205933284,-0.021385584,0.016236379643725863,2.817013493097089E-5,9.929572207256427,-0.198154174,0.6531215205933284,-5.93E-06,4.8927083448732944E-5,2.817013493097089E-5,0,0.12041594833135605,1.222538948059082,13.164999961853027,0.003459524,0,160.09999084472656,-86.9154842,40.384867,0.008692454,3.320725942120969E-4,-9.41E-04,-114.8495776,29.841321487426757,-31.42573544,Home
169,0.9992978458221142,-0.010416862,0.032661712,0.015116676724014374,-0.06565255,0.019832918098053105,-3.110689069,-53.25421886,-13.77355576,-3.071227925,-88.25,9.937955856323242,-0.196710929,0.6515156609340779,-0.021309171,0.016022993699432567,-5.87E-05,9.937955856323242,-0.196710929,0.6515156609340779,7.048237603157759E-5,-1.64E-04,-5.87E-05,0,0.12727922201156616,1.2325966358184814,13.185999870300293,0.00286615,0,160.09999084472656,-86.9154842,40.384867,0.004403554,6.515237574393933E-4,-0.001480332,-114.8140762,29.847787494659425,-31.39084341,Home
170,0.9992983682641705,-0.010433286,0.032663974,0.015065733,-0.065656593,0.019869023138313617,-3.110789785,-53.30887489,-13.74537373,-3.112097919,-96.66666667,9.935414953139222,-0.198194828,0.6521429031797983,-0.021290695,0.016105907426658763,-6.67E-05,9.935414953139222,-0.198194828,0.6521429031797983,8.89583386806319E-5,-8.15E-05,-6.67E-05,0,0.092195444,1.2426767349243164,13.201000213623047,0.001503122,0,160.09999084472656,-86.9154842,40.384867,-5.55E-04,-4.40E-04,-0.001034004,-114.8688541,29.874383525848387,-31.43183548,Home
171,0.9992959262097924,-0.010431179,0.032698048,0.015154532138800737,-0.065726469,0.019857916,-3.11061171,-53.33364109,-13.76501573,-3.068177915,-112.875,9.933855454898575,-0.197474658,0.6530024634981618,-0.021183945,0.015916129700767185,5.189236196987693E-5,9.933855454898575,-0.197474658,0.6530024634981618,1.957083450973902E-4,-2.71E-04,5.189236196987693E-5,0,0.092195444,1.1010631322860718,10.342000007629395,0.021705400198698044,0,160.1999969482422,-86.9154845,40.3848667,-4.85E-04,1.38429906761762E-4,-7.64E-04,-114.892888,29.854985427856445,-31.38852533,Home
172,0.9992948394377255,-0.010441786,0.03272329,0.015165055315326718,-0.065777538,0.019877653,-3.110589463,-53.34645088,-13.7596477,-3.142231936,-100,9.931755852930754,-0.198078671,0.6527701506336916,-0.021302556,0.016022879675537057,6.375347379396117E-5,9.931755852930754,-0.198078671,0.6527701506336916,7.709722685654765E-5,-1.65E-04,6.375347379396117E-5,0,0.092195444,1.1110458374023438,10.314000129699707,0.015431951731443405,0,160.1999969482422,-86.9154846,40.3848667,-0.00116477,-2.97E-04,-0.001413143,-114.9069178,29.86035339355469,-31.46184731,Home
173,0.9992939239566766,-0.010427551,0.032750882,0.015175426,-0.065832499,0.019847659,-3.110569104,-53.33059063,-13.75928175,-3.159677947,-124.75,9.931427743,-0.198194828,0.6537226322785165,-0.021255112,0.015987296353627757,5.189236366524569E-5,9.931427743,-0.198194828,0.6537226322785165,1.2454167415288468E-4,-2.00E-04,5.189236366524569E-5,0,0.10000000149011612,1.1210393905639648,10.298999786376953,0.005485771,0,160.1999969482422,-86.9154845,40.3848667,-1.63E-04,-7.37E-04,-9.21E-04,-114.8910582,29.861085453033446,-31.47892742,Home
174,0.9992886012040295,-0.010447136,0.032814624,0.015373301,-0.065964616,0.019871772040875212,-3.110170904,-53.32327087,-13.77965567,-3.047559912,-100.4444444,9.928445027,-0.198420216,0.6549661715443318,-0.021006028,0.015868685217302978,1.8236459429529542E-4,9.928445027,-0.198420216,0.6549661715443318,3.73625022458654E-4,-3.19E-04,1.8236459429529542E-4,0,0.092195444,1.1310505867004395,10.281000137329102,0.002099693,0,160.1999969482422,-86.9154845,40.3848667,-0.001526805,-6.67E-04,-9.00E-04,-114.8828838,29.84071147918701,-31.36778536,Home
175,0.9992901462953068,-0.010450956,0.032799151,0.015303343,-0.06593239,0.019884506783005105,-3.110310832,-53.302897,-13.76794369,-3.063053925,-132.7777778,9.930481095915859,-0.198543297,0.6536529417176848,-0.02133814,0.016094046319355664,1.2305903460975122E-4,9.930481095915859,-0.198543297,0.6536529417176848,4.151389138429489E-5,-9.34E-05,1.2305903460975122E-4,0,0.092195444,1.1410545110702515,10.28600025177002,0.004577792,0,160.1999969482422,-86.9154844,40.3848667,7.275331367566747E-4,-8.93E-04,-0.00179868,-114.8626317,29.853155460357666,-31.38303545,Home
176,0.9992937885441826,-0.010487752,0.032762266044477815,0.015117899243475742,-0.065856088,0.019971418,-3.110679913,-53.31521873,-13.76550374,-3.127103937,-96.75,9.912073246483663,-0.200634112,0.6530721557950511,-0.021136501,0.015963574129979587,6.375347548932994E-5,9.912073246483663,-0.200634112,0.6530721557950511,2.4315279239372722E-4,-2.24E-04,6.375347548932994E-5,0,0.086023256,1.1509742736816406,10.276000022888184,0.006958895,0,160.1999969482422,-86.9154843,40.3848667,-0.011560486,-0.002078102,-0.001411429,-114.875808,29.854375419616698,-31.44745138,Home
177,0.9992852066327067,-0.010735886,0.032841088,0.015338638336262077,-0.066026338,0.020450372230804082,-3.110220444,-53.39256702,-13.7917337,-3.069641943,-100.6666667,9.878178698345295,-0.204885438,0.652607532,-0.021243251,0.016070324104749463,1.6309027627870006E-5,9.878178698345295,-0.204885438,0.652607532,1.0823264539476881E-4,-8.90E-05,-1.19E-05,0,0.10000000149011612,1.1609846353530884,10.27400016784668,0.006501589,0,160.1999969482422,-86.9154843,40.3848666,-0.015482865,-0.002084097,-0.00145713,-114.9523019,29.827657527923584,-31.38913549,Home
178,0.9992832952332729,-0.010884135,0.032854509,0.015329905,-0.066057864,0.020746840688499434,-3.110227747,-53.39512886,-13.77721571,-3.158091948,-110,9.874624298614206,-0.205744996,0.6531883159887444,-0.021219528,0.016058463024572263,-5.49E-05,9.874624298614206,-0.205744996,0.6531883159887444,7.413197715667266E-6,2.3722223648168508E-5,-2.08E-04,0,0.086023256,1.1709764003753662,10.29699993133545,0.006690028,0,160.1999969482422,-86.9154842,40.3848666,-0.003696831,-4.23E-04,-1.70E-04,-114.955474,29.843395404815674,-31.47782948,Home
179,0.9992853168111581,-0.01089421,0.032848512,0.015203588507854594,-0.066043575,0.020775510445953563,-3.110479758,-53.3437669,-13.77514175,-3.102703936,-116.7777778,9.880548227180554,-0.204118806,0.6532812378938916,-0.021168206,0.015929017,-5.87E-05,9.880548227180554,-0.204118806,0.6532812378938916,5.873531335964799E-5,-1.06E-04,-2.11E-04,0,0.086023256,1.1809933185577393,10.309000015258789,0.003790586,0,160.1999969482422,-86.9154842,40.3848666,0.002756146,0.001403383,1.4218859947644747E-4,-114.903868,29.843883419036864,-31.42268539,Home
180,0.9992901387723904,-0.010849048,0.032803081735534576,0.015015575022084041,-0.065947312,0.020699052519879295,-3.110859644,-53.37402271,-13.77221373,-3.10111793,-126.875,9.886890429894901,-0.20474605,0.6524449112345871,-0.021302556,0.016129629695516765,1.5864237008200399E-4,9.886890429894901,-0.20474605,0.6524449112345871,-7.56E-05,9.488889459267403E-5,5.930555912042127E-6,0,0.092195444,1.1909781694412231,10.305999755859375,0.001622687,0,160.1999969482422,-86.9154842,40.3848666,0.003004389,1.968796392088955E-4,-1.93E-04,-114.9337577,29.847055320739745,-31.42170946,Home
181,0.9992935426026872,-0.010813208,0.032769647435945216,0.014887255254807403,-0.065876608,0.020636896,-3.111119273,-53.35584484,-13.74195771,-3.027307923,-128.7777778,9.894719484940316,-0.203723875,0.6517479749559199,-0.021326278,0.015951713031718454,-7.41E-06,9.894719484940316,-0.203723875,0.6517479749559199,-9.93E-05,-8.30E-05,-1.60E-04,0,0.092195444,1.1909781694412231,10.305999755859375,0.001622687,0,160.1999969482422,-86.9154842,40.3848666,0.005932345,7.041438111981142E-4,-5.12E-04,-114.9157018,29.87767744064331,-31.34741142,Home
182,0.9993049947960863,-0.01066538,0.032646028,0.014491277258590009,-0.06561648,0.020371171691029973,-3.111923375,-53.32534477,-13.72939175,-3.046461916,-131.625,9.929853855984883,-0.199077616,0.6520732126189667,-0.021243251,0.016070324122833397,-1.02E-04,9.929853855984883,-0.199077616,0.6520732126189667,-1.63E-05,3.558333547225276E-5,-2.55E-04,0,0.086023256,1.2110317945480347,13.387999534606934,0.004853801,0,160.1999969482422,-86.9154841,40.3848667,0.017627243856781896,0.00319264,8.56837601337618E-4,-114.8852014,29.891463451385498,-31.36790745,Home
183,0.9993165471021411,-0.010466223,0.032549307762997824,0.014050112973934816,-0.065407948,0.020004818,-3.112820567,-53.34950077,-13.78380374,-3.216651955,-125.6666667,9.947064592,-0.198121113,0.6508707719353529,-0.021290695,0.016212657473764373,6.375347548932994E-5,9.947064592,-0.198121113,0.6508707719353529,-6.38E-05,1.779166773612638E-4,-8.90E-05,0,0.086023256,1.221001148223877,13.378999710083008,0.008700527,0,160.1999969482422,-86.915484,40.3848668,0.009619713,9.836668817742357E-4,5.4183515530188105E-5,-114.9091141,29.835221519470213,-31.53541342,Home
184,0.9993213710275669,-0.01039296,0.032513089,0.013844528090823623,-0.065329167,0.019872860910678372,-3.113237173,-53.36316483,-13.75196172,-3.077937937,-122.6666667,9.946778065949967,-0.197219113,0.6514459663224452,-0.021255112,0.016046601844933426,6.37534743590841E-5,9.946778065949967,-0.197219113,0.6514459663224452,-2.82E-05,1.1861111824084254E-5,-8.90E-05,0,0.086023256,1.2309725284576416,12.93999958,0.005465335,0,160.1999969482422,-86.915484,40.3848668,5.464090884310528E-4,7.044280906325405E-4,9.356985971765611E-4,-114.9233876,29.867551460266114,-31.39779741,Home
185,0.9993166888801797,-0.01037243,0.032582132670196516,0.014034291,-0.065470488,0.019817440490265494,-3.112857728,-53.32705288,-13.76696778,-3.180539935,-121.75,9.940578210701062,-0.197056495,0.6538387861066651,-0.021266973,0.016165212999342135,4.447915238662831E-6,9.940578210701062,-0.197056495,0.6538387861066651,-4.00E-05,1.304722300649268E-4,-1.48E-04,0,0.086023256,1.2410897016525269,13.375,0.002460718,0,160.1999969482422,-86.915484,40.3848668,-0.002547718,4.851224931698401E-4,0.001988899,-114.8872758,29.85364342,-31.50113144,Home
186,0.9993074727289885,-0.010461022,0.032699293484097544,0.014347950801325655,-0.065713874,0.019970529,-3.112222412,-53.25848892,-13.75257176,-3.149063933,-120.5555556,9.937958819194904,-0.198752379,0.6550932758062789,-0.02112464,0.015892407431909183,-1.93E-05,9.937958819194904,-0.198752379,0.6550932758062789,1.0230209117809545E-4,-1.42E-04,-1.72E-04,0,0.086023256,1.2509801387786865,10.281999588012695,8.686002693139017E-4,0,160.1999969482422,-86.915484,40.3848668,-0.001438993,1.0518368008067306E-4,0.001146297,-114.8185898,29.867063484191895,-31.46916739,Home
187,0.9993085618157989,-0.010447333,0.032701127,0.014278195065997758,-0.065715726,0.019947704343685826,-3.112362757,-53.31778088,-13.79209971,-3.116977925,-126.25,9.934523434314913,-0.19768374,0.6534670880697306,-0.021255112,0.016082185257262398,2.817013888683134E-5,9.934523434314913,-0.19768374,0.6534670880697306,-2.82E-05,4.7444447296337016E-5,-1.25E-04,0,0.086023256,1.110394001,10.25,0.038291409611701965,0,160.1999969482422,-86.9154848,40.3848667,-0.001796056,8.630733756185736E-4,-3.93E-04,-114.8773936,29.82838945388794,-31.43756943,Home
188,0.9993128713506919,-0.010444558,0.032654355136820905,0.014084671104613405,-0.065618185,0.019956230132195812,-3.112750808,-53.33778885,-13.76281974,-3.072569931,-120.6666667,9.933945516938145,-0.199054386,0.6527004566007447,-0.021179953,0.016246187921541814,-1.17E-05,9.933945516938145,-0.199054386,0.6527004566007447,4.698825180709649E-5,2.1144712809473276E-4,-1.64E-04,0,0.086023256,1.120470643043518,10.211000442504883,0.023424532264471054,0,160.1999969482422,-86.915485,40.3848667,-8.06E-04,-5.33E-04,3.576565247315627E-5,-114.8980116,29.85657133102417,-31.39279537,Home
189,0.9993143949693847,-0.010451608,0.032640093,0.014004356300150886,-0.065588255,0.019976002896584355,-3.112911213,-53.31216885,-13.79344172,-3.181515946,-132.75,9.932749035288987,-0.197056495,0.653397393,-0.021172084,0.016094046337439598,4.447916934031595E-6,9.932749035288987,-0.197056495,0.653397393,5.48576427515126E-5,5.930555912042127E-5,-1.48E-04,0,0.086023256,1.1305079460144043,10.180000305175781,0.010451051406562328,0,160.1999969482422,-86.915485,40.3848667,-6.02E-04,0.001711613,0.001074056,-114.8716599,29.82607130050659,-31.50149738,Home
190,0.9993165019646432,-0.010402137,0.032643195,0.013882575,-0.065590564,0.019885014887284308,-3.113157914,-53.38475899,-13.73841971,-3.160653932,-134.1111111,9.932028919,-0.197521121,0.6517015116886028,-0.021136501,0.015975435201114822,2.8170140017077183E-5,9.932028919,-0.197521121,0.6517015116886028,9.04409793540112E-5,-5.93E-05,-1.25E-04,0,0.086023256,1.1405293941497803,10.15999984741211,0.003634566,0,160.1999969482422,-86.9154849,40.3848667,-5.34E-04,3.249014465554247E-4,-5.94E-04,-114.9453473,29.881947460174562,-31.48185551,Home
191,0.9993129395744176,-0.01049835,0.032682406,0.013973868045124035,-0.065673738,0.020070213137321102,-3.112968225,-53.32144073,-13.79502773,-3.105265918,-128.875,9.912796307536004,-0.201121969,0.652514609,-0.021077195,0.015892407,4.0031250710915594E-5,9.912796307536004,-0.201121969,0.652514609,1.4974653790930954E-4,-1.42E-04,-1.13E-04,0,0.086023256,1.150346279144287,10.168000221252441,9.013625676743686E-4,0,160.1999969482422,-86.9154849,40.3848667,-0.012380109,-0.001582249,-1.23E-04,-114.8809318,29.824851436614992,-31.42463749,Home
192,0.9993034057246829,-0.010691764,0.032780994,0.014274067959739166,-0.065882961,0.020434194922591877,-3.112353154,-53.35291691,-13.76843174,-3.122467942,-125.7777778,9.878410987483646,-0.203328943,0.6527004589154882,-0.021100917,0.01591613,2.817013945195426E-5,9.878410987483646,-0.203328943,0.6527004589154882,1.2602431369601813E-4,-1.19E-04,-1.25E-04,0,0.086023256,1.1603960990905762,10.166999816894531,4.45948498963844E-5,0,160.1999969482422,-86.9154849,40.3848667,-0.015814753,-8.00E-04,2.0839056922394097E-5,-114.9132617,29.85132543563843,-31.44427942,Home
193,0.9992960280585057,-0.010843689,0.032851757,0.014512777409868912,-0.066034153,0.02072005,-3.111864305,-53.33534866,-13.77916771,-3.119661922,-121.875,9.874350685339708,-0.205460636,0.6535626953611007,-0.021195806,0.016011018577275923,-7.86E-05,9.874350685339708,-0.205460636,0.6535626953611007,3.113541966846701E-5,-2.37E-05,-2.31E-04,0,0.086023256,1.1704336404800415,10.166999816894531,0.003921706,0,160.1999969482422,-86.9154848,40.3848667,-0.003747329,-3.90E-04,4.507002321261804E-4,-114.8952059,29.84071132659912,-31.43964346,Home
194,0.9992957688072353,-0.010872612,0.032861389653775296,0.014486916,-0.066053785,0.020779277,-3.111913887,-53.32449085,-13.7828277,-3.100873942,-119.8888889,9.878759402673222,-0.205326832,0.6540943337875662,-0.021290695,0.016236379661244676,-1.93E-05,9.878759402673222,-0.205326832,0.6540943337875662,-6.38E-05,2.0163890100943232E-4,-1.72E-04,0,0.086023256,1.1804684400558472,10.192000389099121,0.002798307,0,160.1999969482422,-86.9154848,40.3848667,0.001918598,2.6598500395284114E-4,8.422755500645313E-4,-114.8848357,29.836441497802735,-31.42146542,Home
195,0.9993002183229021,-0.010869532,0.032816198989025595,0.014283474914512588,-0.065959039,0.020787886154015087,-3.112321807,-53.37524288,-13.76708971,-3.114537935,-118.875,9.886332873,-0.204072343,0.652584298,-0.021183945,0.015987296380753656,-9.04E-05,9.886332873,-0.204072343,0.652584298,4.2996530927428344E-5,-4.74E-05,-2.43E-04,0,0.086023256,1.1903584003448486,10.220000267028809,0.00516983,0,160.1999969482422,-86.9154847,40.3848667,0.003559011,0.001634222,-6.98E-05,-114.9350993,29.853643398284913,-31.43598333,Home
196,0.9993065722937723,-0.010837075,0.032750867,0.014009571968785767,-0.065821632,0.02074294,-3.112872959,-53.31229095,-13.79636967,-3.13344794,-140.8888889,9.900155641500232,-0.204513738,0.652189368,-0.021480473,0.016295685215844114,-1.93E-05,9.900155641500232,-0.204513738,0.652189368,-2.54E-04,2.609444601298536E-4,-1.72E-04,0,0.086023256,1.2004262208938599,10.251999855041504,0.003248201,0,160.1999969482422,-86.9154847,40.3848667,0.009335759,9.762676595484169E-4,4.581253505447536E-4,-114.8716597,29.82314344406128,-31.45391735,Home
197,0.9993224826831262,-0.010632994,0.032584593,0.013406730428772065,-0.065470506,0.020379276204745746,-3.114095243,-53.34498672,-13.78697573,-3.054391909,-137.75,9.939001296330424,-0.199077616,0.6516550466852281,-0.021136501,0.016177074115687202,-1.02E-04,9.939001296330424,-0.199077616,0.6516550466852281,9.044097878888829E-5,1.4233334188901105E-4,-2.55E-04,0,0.086023256,1.2104922533035278,10.263999938964844,0.037388977,0,160.1999969482422,-86.915485,40.3848673,0.018309658013501214,0.00353079,0.001239741,-114.9048438,29.83265941619873,-31.37437336,Home
198,0.9993238850281789,-0.010367933,0.032599864,0.013472595055086108,-0.065494704,0.019844735,-3.113980752,-53.34010693,-13.75122973,-3.138327942,-127.1111111,9.946493537680617,-0.19570908,0.6525843021939102,-0.021226942,0.0159995,1.9970006430342508E-4,9.946493537680617,-0.19570908,0.6525843021939102,1.1193780944897579E-12,-3.52E-05,4.698825068771839E-5,0,0.086023256,1.2204598188400269,10.270999908447266,0.026930341497063637,0,160.1999969482422,-86.9154851,40.3848674,0.005264603,0.0017943,7.185047635665307E-4,-114.90033,29.869137363433836,-31.45794331,Home
199,0.9993223206510822,-0.010336486,0.032633387782041307,0.013531699,-0.065562059,0.019777073570102163,-3.113863998,-53.3446209,-13.75842774,-3.140035954,-130.125,9.943174344,-0.197358501,0.6538620191870383,-0.021172084,0.016046601853975394,9.933681039645979E-5,9.943174344,-0.197358501,0.6538620191870383,5.485764331663552E-5,1.1861111824084254E-5,-5.34E-05,0,0.086023256,1.2305665016174316,10.253000259399414,0.012995479628443718,0,160.1999969482422,-86.9154851,40.3848674,-7.02E-04,-3.65E-04,0.001113064,-114.9050878,29.860841484069823,-31.45965139,Home
200,0.9993237881984526,-0.010363988,0.0326257,0.013420453521160825,-0.065545264,0.019839552999700156,-3.114084739,-53.35389278,-13.76403971,-3.192373953,-134.1111111,9.938713879261202,-0.197985746,0.6532115438609447,-0.021314417,0.016224518562983542,-1.93E-05,9.938713879261202,-0.197985746,0.6532115438609447,-8.75E-05,1.8977778918534806E-4,-1.72E-04,0,0.086023256,1.2404429912567139,10.218999862670898,0.007354267,0,160.1999969482422,-86.9154852,40.3848674,-0.00184274,-4.35E-04,8.449652819957548E-4,-114.9142375,29.85693748474121,-31.51259943,Home
201,0.9993200851875601,-0.01042506,0.032677597357231435,0.013522428044488707,-0.065652916,0.019953503662232055,-3.113875792,-53.34571884,-13.78331571,-3.145525937,-128.2222222,9.935705323821132,-0.198450372,0.6540014101463614,-0.021255112,0.016011018595359857,4.0031250710915594E-5,9.935705323821132,-0.198450372,0.6540014101463614,-2.82E-05,-2.37E-05,-1.13E-04,0,0.086023256,1.2504308223724365,10.185999870300293,0.003543787,0,160.1999969482422,-86.9154852,40.3848674,-0.001926561,1.792705174788688E-4,7.52171845112032E-4,-114.9053319,29.836563377380372,-31.46514132,Home
202,0.999321285,-0.010420188,0.032671586,0.013451472,-0.065639336,0.019948582463328122,-3.1140181,-53.33400696,-13.79124575,-3.133447945,-127.625,9.928787332,-0.19793705,0.6525503482956153,-0.021219528,0.016153351873955103,1.6309027627870006E-5,9.928787332,-0.19793705,0.6525503482956153,7.413196020298502E-6,1.1861111824084254E-4,-1.36E-04,0,0.086023256,1.1099326610565186,10.173999786376953,0.073957205,0,160.09999084472656,-86.9154868,40.3848673,-0.003603917,5.829966473347932E-4,-1.85E-04,-114.8936194,29.827779445648194,-31.45464937,Home
203,0.999325801,-0.010441831,0.032626125,0.013207590107995909,-0.065544111,0.020009092190890636,-3.114505185,-53.41306297,-13.74317775,-3.177367947,-126.2222222,9.923224051021835,-0.198938229,0.6524216822050151,-0.021207667,0.016212657464722408,2.8170140017077183E-5,9.923224051021835,-0.198938229,0.6524216822050151,1.927430953975152E-5,1.779166773612638E-4,-1.25E-04,0,0.092195444,1.1199363470077515,10.142000198364258,0.051898867,0,160.09999084472656,-86.9154872,40.3848674,-0.002706241,5.719340541987743E-5,9.962945308500124E-4,-114.9729198,29.877555503845215,-31.49698332,Home
204,0.9993257493648714,-0.010428878,0.032641077,0.013184931310056483,-0.065573209,0.019984277833289314,-3.11455106,-53.32741875,-13.77465378,-3.150161941,-128.375,9.930077395392853,-0.197497889,0.6526772316219738,-0.021089056,0.016046601908227192,-4.30E-05,9.930077395392853,-0.197497889,0.6526772316219738,1.3788542665034821E-4,1.1861111824084254E-5,-1.96E-04,0,0.086023256,1.1298820972442627,10.13700008392334,0.025069868192076683,0,160.09999084472656,-86.9154872,40.3848674,0.002489942,0.001096262,9.316605271644963E-4,-114.8872755,29.845835399627685,-31.47111944,Home
205,0.9993260543323258,-0.010418023,0.032644111,0.013162401,-0.065578523,0.019963976,-3.114596767,-53.33290882,-13.73622373,-3.098921933,-134.5555556,9.930913694,-0.198125134,0.6534206242237276,-0.021278834,0.016224518553941573,-1.02E-04,9.930913694,-0.198125134,0.6534206242237276,-5.19E-05,1.8977778918534806E-4,-2.55E-04,0,0.086023256,1.139952540397644,10.125,0.006772528,0,160.09999084472656,-86.9154871,40.3848673,5.552699264970798E-4,5.313976875786642E-4,0.001347548,-114.892278,29.88328935623169,-31.41817142,Home
206,0.999323425,-0.010504686,0.032661819486942106,0.013248802849896324,-0.065618164,0.020131053728530707,-3.114417926,-53.35169678,-13.7819737,-3.05573391,-123.875,9.917648759860437,-0.201052276,0.6523287579851244,-0.02123139,0.016046601926311126,-3.11E-05,9.917648759860437,-0.201052276,0.6523287579851244,-4.45E-06,1.1861111824084254E-5,-1.84E-04,0,0.086023256,1.149865984916687,10.13599967956543,0.003126743,0,160.09999084472656,-86.915487,40.3848673,-0.00928277,-9.35E-04,6.115031473844955E-5,-114.9115537,29.83814945220947,-31.37571543,Home
207,0.9993130604808147,-0.010702464,0.032753461,0.013640260046276335,-0.065815223,0.020498121,-3.113620258,-53.32461292,-13.78868375,-3.05585592,-135.2222222,9.878225141358607,-0.203747104,0.6532115450183165,-0.021309171,0.016175705563420288,-4.70E-05,9.878225141358607,-0.203747104,0.6532115450183165,-8.22E-05,1.4096475206315517E-4,-2.00E-04,0,0.086023256,1.1598836183547974,10.156000137329102,0.00353134,0,160.09999084472656,-86.915487,40.3848674,-0.017959851,-4.37E-04,0.001093374,-114.8849578,29.831683464050293,-31.37632536,Home
208,0.9993066052788669,-0.010813446,0.032811859749185227,0.013883623186028699,-0.065940376,0.020702277988340092,-3.113125102,-53.38854088,-13.7602577,-3.100995929,-135,9.872928452723235,-0.205373295,0.6525610685348511,-0.021278834,0.016022879711704924,8.747569857237554E-5,9.872928452723235,-0.205373295,0.6525610685348511,-5.19E-05,-1.19E-05,-6.52E-05,0,0.086023256,1.169861078262329,10.18999958,0.003042248,0,160.09999084472656,-86.915487,40.3848674,-0.004633422,-5.30E-04,4.106129257424364E-4,-114.9480318,29.858889350891115,-31.42085546,Home
209,0.999304902,-0.010889539,0.032841118613203754,0.013877645125883875,-0.06600107,0.020853933254347264,-3.113131375,-53.33656887,-13.77928974,-3.210307937,-131.2222222,9.880199747,-0.206302547,0.6541175628171384,-0.021314417,0.016153352,-9.04E-05,9.880199747,-0.206302547,0.6541175628171384,-8.75E-05,1.1861111824084254E-4,-2.43E-04,0,0.086023256,1.179859996,10.230999946594238,0.004402588,0,160.09999084472656,-86.9154869,40.3848674,0.002790284,3.977553937041644E-5,0.001375522,-114.895816,29.84058940887451,-31.52894739,Home
210,0.9993059826128691,-0.010870124,0.032836662,0.013825504091179486,-0.06599049,0.020818695,-3.113237018,-53.36182285,-13.78648771,-3.126859939,-106.375,9.884729848324675,-0.20437435,0.6523287562490667,-0.021195806,0.015927990826154217,-7.86E-05,9.884729848324675,-0.20437435,0.6523287562490667,3.113541853822117E-5,-1.07E-04,-2.31E-04,0,0.086023256,1.1899361610412598,10.256999969482422,0.034848012030124664,0,160.09999084472656,-86.9154876,40.3848677,0.00277935,0.001714585,-6.10E-04,-114.9221679,29.83546543121338,-31.44623146,Home
211,0.9993102677817484,-0.010797058,0.032806306,0.013643582279170022,-0.065923819,0.020685502734867113,-3.113606235,-53.3312009,-13.8083257,-3.175781951,-108.3333333,9.90057373,-0.20256231,0.6532347752052603,-0.021112778,0.016034740791882125,-1.93E-05,9.90057373,-0.20256231,0.6532347752052603,1.1416320187193387E-4,0,-1.72E-04,0,0.086023256,1.1998461484909058,10.282999992370605,0.031253233551979065,0,160.09999084472656,-86.9154879,40.3848678,0.010901321485204604,0.002366756,4.4852495193481445E-4,-114.8913017,29.810455417633058,-31.4957634,Home
212,0.999320505,-0.010530656,0.032723115,0.013296609898143023,-0.065742544,0.020178146732663646,-3.114319375,-53.32351494,-13.75928176,-3.176635942,-106.6666667,9.940872477,-0.198213144,0.653194567,-0.021397445,0.015987296362669722,1.6309027062747086E-5,9.940872477,-0.198213144,0.653194567,-1.71E-04,-4.74E-05,-1.36E-04,0,0.086023256,1.2099816799163818,10.32699966430664,0.019288739189505577,0,160.09999084472656,-86.915488,40.3848679,0.018567353776357706,0.002337492,1.0837223923322066E-4,-114.8836162,29.86108539581299,-31.49612938,Home
213,0.9993293430041341,-0.010373508,0.032637399,0.012963211896277747,-0.065559883,0.019888237823994414,-3.1149981,-53.32815079,-13.74708167,-3.144671941,-101.125,9.945477115,-0.196986801,0.6529792309964745,-0.021195806,0.01612963,9.933681152670563E-5,9.945477115,-0.196986801,0.6529792309964745,3.113541910334409E-5,9.488889459267403E-5,-5.34E-05,0,0.086023256,1.2199679613113403,10.307000160217285,0.007219114,0,160.09999084472656,-86.9154879,40.3848679,0.004165696,0.001064297,3.7365283780884973E-4,-114.8876422,29.873041381835936,-31.46367739,Home
214,0.9993280641083578,-0.010354728,0.032654484,0.013034033778946377,-0.06559495,0.019845601388262312,-3.114857403,-53.35621094,-13.78185171,-3.055001934,-115.5555556,9.942076553418799,-0.198310985,0.6540478705202492,-0.021326278,0.016153351919164935,1.2305903517487412E-4,9.942076553418799,-0.198310985,0.6540478705202492,-9.93E-05,1.1861111824084254E-4,-2.97E-05,0,0.086023256,1.2299638986587524,10.281000137329102,0.003120159,0,160.09999084472656,-86.9154878,40.3848679,-0.001004219,-5.58E-04,0.001095255,-114.916312,29.838759441375732,-31.37461735,Home
215,0.9993269923821236,-0.010390985,0.032663449,0.013064565082776893,-0.065614515,0.019915831,-3.114793775,-53.38561291,-13.7955157,-3.076717925,-111,9.937386753,-0.198241291,0.6541175610810808,-0.02123139,0.016212657,6.375347605445287E-5,9.937386753,-0.198241291,0.6541175610810808,-4.45E-06,1.779166773612638E-4,-8.90E-05,0,0.086023256,1.2400104999542236,10.270000457763672,0.001422009,0,160.09999084472656,-86.9154878,40.3848679,-0.002288124,-6.34E-05,0.001072966,-114.9454698,29.82338747024536,-31.39657747,Home
