seconds_elapsed,totalAcceleration_z,totalAcceleration_y,totalAcceleration_x,gyroscopeUncalibrated_z,gyroscopeUncalibrated_y,gyroscopeUncalibrated_x,microphone_dBFS,location_bearingAccuracy,location_speedAccuracy,location_verticalAccuracy,location_horizontalAccuracy,location_speed,location_bearing,location_altitude,location_longitude,location_latitude,gyroscope_z,gyroscope_y,gyroscope_x,accelerometerUncalibrated_z,accelerometerUncalibrated_y,accelerometerUncalibrated_x,accelerometer_z,accelerometer_y,accelerometer_x,orientation_qz,orientation_qy,orientation_qx,orientation_qw,orientation_roll,orientation_pitch,orientation_yaw,magnetometerUncalibrated_z,magnetometerUncalibrated_y,magnetometerUncalibrated_x,magnetometer_z,magnetometer_y,magnetometer_x,class
0,10.268460143180121,0.7084855900168241,-0.381455813,0.199568269,-0.098059608,0.10912004231316287,-80.25,42.85919189453125,1.0239628553390503,2.9917240142822266,11.005000114440918,1.1799999475479126,323,155,-86.9102479,40.4257151,0.2054059700713378,-0.098140505,0.10017037105464031,10.265681837811883,0.6916586802582498,-0.408574469,-0.059179147,-0.185551475,-0.219342991,0.6552222469273735,0.034560743,0.028897065784001502,0.7530995523228364,0.013542449841385378,-0.089246195,-1.43171263,-109.7705655,64.31458621025085,-9.004667366,17.409548422185384,8.546397425779482,45.69301614528749,Campus
1,9.585557451525938,1.0943040057872107,-0.125251486,0.076539754,0.064337636,0.003436757,-54.375,42.85919189453125,1.0239628553390503,2.9917240142822266,11.005000114440918,1.1799999475479126,323,155,-86.9102479,40.4257151,0.097003138,0.052574377877691994,0.003103164,9.585557451525938,1.0943040057872107,-0.125251486,-0.361933292,-0.045738181,0.036583454,0.6965095840611504,0.045292382336501937,0.035139292297722065,0.714325037,0.016354068040562955,-0.114068068,-1.544698908,-110.7383002,57.90510265350342,-7.507147837,16.401191663742065,2.044841956,47.21253513336182,Campus
2,9.703767003364934,1.0325523359176603,-0.704088063,-0.038109753,0.11373916505248223,-0.004195868,-46.88888889,42.85919189453125,1.0239628553390503,2.9917240142822266,11.005000114440918,1.1799999475479126,323,155,-86.9102479,40.4257151,-0.01764637,0.1019521869596962,-0.004547252,9.703767003364934,1.0325523359176603,-0.704088063,-0.157006963,-0.106064289,0.092864717,0.7132793936914611,0.069049973,0.011375717121163424,0.6969598942589992,0.080713066,-0.114580266,-1.589428678,-109.697152,56.10755489349365,-4.074189928,17.44355966567993,0.24729398496448993,50.64537113189697,Campus
3,9.777967707624713,0.4936358277477975,-1.349868497,-0.076705811,-0.009991505,-0.061802322,-45.44444444,33.95765305,0.826801062,1.445676326751709,8.892000198364258,1.229291319847107,313.5546569824219,154.79998779296875,-86.9102621,40.425725,-0.056242427,-0.02177107,-0.062156672,9.777967707624713,0.4936358277477975,-1.349868497,-0.023678687,-0.175016132,0.040715692,0.6893334336651181,0.07410928,-0.024001508,0.7195437440594423,0.14091989390769052,-0.067424189,-1.522972137,-108.3712557,59.76291877746582,-2.312509958,18.768723602294923,3.9031459227204324,52.406807022094725,Campus
4,9.748370986718397,0.42203121962777984,-1.343290937,0.050848586936888186,-0.017990342,0.067509002,-39.375,30.305652618408203,0.8459905385971069,1.4557803869247437,8.034000396728516,1.1050612926483154,309.06414794921875,154.79998779296875,-86.9102768,40.4257344,0.07131197,-0.02976546,0.067141306,9.748370986718397,0.42203121962777984,-1.343290937,-0.049869426,-0.309998256,-0.074389081,0.6834726426207903,0.072234118,-0.017501797,0.7255936832103914,0.12935324989765593,-0.072854066,-1.506446833,-109.9644537,60.530786743164064,-2.508929938,17.176135578155517,4.6711359414458276,52.21148517608643,Campus
5,10.139812464852936,0.58307629,-0.700298461,0.18919659393740076,0.006485064,-0.071472095,-51.33333333,49.880802154541016,1.0221545696258545,1.465843915939331,7.491000175476074,1.0299837589263916,308.5079345703125,154.79998779296875,-86.9102895,40.4257432,0.20965997632412078,-0.005284126,-0.071787896,10.139812464852936,0.58307629,-0.700298461,0.27068496444850293,-0.223532933,-0.103290722,0.7439058556140048,0.050459911,0.005260062,0.6654242520193452,0.06021014,-0.081994911,-1.679504389,-113.5823635,55.5570911,-2.285669945,13.557127780914307,-0.303291994,52.43437889099121,Campus
6,9.807657283486671,0.7061440294949808,-0.510458185,-0.15394537,0.062048441,-0.077693247,-53.25,21.363779067993164,0.826801062,1.4757978916168213,7.024000168,0.8617711067199707,294.5387878417969,154.79998779296875,-86.910302,40.4257488,-0.133481988,0.050285184434931546,-0.07801498,9.807657283486671,0.7061440294949808,-0.510458185,-0.118349899,0.38439951,0.1827961487098805,0.7530474066734314,0.0351979,-0.016077538,0.6557090785896894,0.069794501,-0.031603265,-1.707830393,-114.644862,56.46318485,-0.509593988,12.495483751296996,0.6032899868488312,54.210333023071286,Campus
7,9.849023536571021,0.2606463386017142,-0.896660927,0.11526217865936744,-0.011528274,0.010761777761217672,-49,45,0.23321637511253357,1.4857146739959717,7.196000099182129,1.0632675886154175,296.6182556152344,154.79998779296875,-86.9103018,40.4257472,0.1357255621461753,-0.023294424,0.010419643946918838,9.849023536571021,0.2606463386017142,-0.896660927,-0.048708017,0.46406919272759783,-0.138704638,0.7737577494520408,0.016857377468673242,-0.035487188,0.6317819144863349,0.076356425,0.019106631,-1.77288682,-116.0467638,56.130856857299804,1.0617659673839808,11.093947811126709,0.2705959898233414,55.782059059143066,Campus
8,10.16544526294597,-0.260829283,-0.904835429,0.12780348076801568,0.087309643,0.031732921814093894,-40.75,45,0.22678984701633453,1.4857146739959717,7.729000091552734,1.0280930995941162,294.8741149902344,154.79998779296875,-86.9103082,40.4257498,0.1482668625444029,0.075525629,0.031368193361293345,10.16544526294597,-0.260829283,-0.904835429,0.2599444018984304,-0.231717533,0.10576107721884274,0.8147795773246913,0.027981728,-0.042385597,0.5765292227846904,0.10166491644041052,0.002808494,-1.909931038,-113.4475538,46.523844985961915,0.7187019804865122,13.692547740936279,-9.33592783,55.43875102996826,Campus
9,9.64637405,0.5397789754262827,-1.557068353,-0.064382116,0.019111214069993172,-0.04730508,-37.66666667,45,0.2373623102903366,1.4957019090652466,8.069999694824219,1.1042741537094116,287.5468444824219,154.79998779296875,-86.9103228,40.4257549,-0.043918731,0.007324235,-0.047638673,9.64637405,0.5397789754262827,-1.557068353,-0.185590485,0.062808526,-0.143833633,0.8154135057069722,0.060878989,-0.044339323,0.5733174293943979,0.14282078592522632,-0.048006526,-1.912554888,-109.0760497,42.909473266601566,1.2489139682799577,18.063807640075684,-12.95103172,55.96871910095215,Campus
10,9.921203452807207,-0.281035869,-0.752327026,0.039877058,-0.101107084,-0.065729834,-43.77777778,45,0.22246089577674866,1.515686035,8.152000427246094,1.2297619581222534,280.9985046386719,154.79998779296875,-86.9103469,40.4257586,0.060340442,-0.112876272,-0.066070841,9.921203452807207,-0.281035869,-0.752327026,7.127511848523778E-4,-0.193872993,-9.56E-06,0.82651793,0.018315989,-0.033817861,0.5606808772364866,0.076131649,0.008054296,-1.9499395,-108.6247715,46.370612983703616,-1.66298196,18.514719734191896,-9.489403844,53.057432975769046,Campus
11,10.043094841021937,-0.067716301,-0.615559437,0.038299530830451296,-0.01954118,0.012024203,-43.875,45,0.22685521841049194,1.5257148742675781,8.128000259399414,1.1833112239837646,278.60125732421875,154.79998779296875,-86.9103695,40.4257612,0.058762913,-0.031319266,0.011666887702004424,10.043094841021937,-0.067716301,-0.615559437,0.2225112868744193,-0.216086821,0.048299233,0.81897459,0.025356153104775268,-0.022865848,0.5720122745893534,0.066703354,-0.01516798,-1.921792579,-108.242668,46.062929191589355,-1.654319956,18.89645763397217,-9.796477814,53.065972900390626,Campus
12,9.980283209421103,-0.146917568,-0.015686929,-0.299576102,-0.00541015,0.06335168,-60.88888889,45,0.19339735805988312,1.0648772716522217,7.625999927520752,1.1944626569747925,279.5057678222656,154.79998779296875,-86.910396,40.4257649,-0.279112717,-0.017192681,0.062989917,9.980283209421103,-0.146917568,-0.015686929,0.088539735,-0.163435481,0.4250341462857515,0.7848272514574736,0.015001369894112606,-0.018012873,0.6158922916477166,0.046474364767013825,-0.001447529,-1.810821617,-108.5152158,49.12549499511719,-2.71693994,18.624031620025633,-6.734643925,52.00274322509765,Campus
13,9.857807849217387,0.2415269896098711,0.8936931177774824,-0.685053456,-0.180486275,0.10856782070074517,-52.625,45,0.20592211186885834,1.074808955192566,6.693999767303467,1.239892601966858,288.00274658203125,154.79998779296875,-86.9104134,40.4257718,-0.664590072,-0.192252428,0.10819044578462265,9.857807849217387,0.2415269896098711,0.8936931177774824,-0.065336085,-0.562338063,0.5565024306281254,0.5939775501879362,0.007940752,0.042364148,0.793307745,-0.034251514,-0.080088291,-1.286834242,-109.6148022,55.61052661895752,-9.57089982,17.52456771850586,-0.249856006,45.149271163940426,Campus
14,9.310278332349165,1.3584844106808305,1.9971705861389637,-0.193976623,-0.036412131,-0.047964853,-55.22222222,45,0.2108864039182663,1.0847560167312622,5.810999870300293,1.353428602218628,315.8233947753906,154.79998779296875,-86.910428,40.4257837,-0.17351324,-0.048197628,-0.048326617,9.310278332349165,1.3584844106808305,1.9971705861389637,-0.308976789,-0.027357369,0.16328244186142116,0.4386970435531394,-0.052004383,0.10467972754708772,0.8900864043282074,-0.188542115,-0.140576873,-0.929886278,-111.0029182,60.14843876,-22.16288557,16.13681763648987,4.288543922305107,32.55765119552612,Campus
15,9.619434537239446,0.5696195628747199,0.2814848012318021,-0.085518618,0.1729275982118284,-0.085423725,-52.5,45,0.42279767990112305,1.0947436094284058,5.290999889373779,1.6465429067611694,338.9273376464844,154.79998779296875,-86.9104341,40.4258006,-0.065055233,0.16113913550891562,-0.085760287,9.619434537239446,0.5696195628747199,0.2814848012318021,-0.21310122,-0.050840759,-0.173644416,0.3637022555453106,-0.009801303,0.037918390855373976,0.9294215278718078,-0.046507846,-0.0629064,-0.749187953,-108.1883778,65.81253311157226,-20.11279755,-24.22126942,12.955545811653137,18.773725700378417,Campus
16,9.913554242513712,0.19734107561915823,-0.331533709,-0.142131703,-0.020893349,2.8169338672774508E-5,-43.22222222,45,0.4062020480632782,1.1047035455703735,5.323999881744385,1.5788168907165527,346.8726806640625,154.79998779296875,-86.910437,40.4258195,-0.12166832,-0.032671432,-3.25E-04,9.913554242513712,0.19734107561915823,-0.331533709,0.030015366748698705,-0.183739447,-0.13606803,0.32108857562241044,0.015859115517335702,0.015241846738347007,0.9458958089930339,0.019779447278514214,-0.038555713,-0.654010465,-107.390986,68.08441658,-18.03220962,-46.67109909,16.84441773414612,12.32761173248291,Campus
17,10.270115577257597,0.3427114447471328,-0.002755196,-0.094106062,0.011813667629962986,0.023972789190135426,-54.66666667,45,0.3173355758190155,1.355965495109558,5.379000186920166,1.4543943405151367,348.2687988,154.6999969482422,-86.9104403,40.4258347,-0.073642678,4.151355005005031E-5,0.023622887839169864,10.270115577257597,0.3427114447471328,-0.002755196,0.3102774851530501,-0.164096305,0.065463654,0.29404790077394655,0.011375318354041456,0.024155638121900337,0.9552609156636358,0.007580354,-0.052768583,-0.597061441,-108.433476,67.88031059265137,-20.39217764,-47.71334507,16.64031167984009,9.969351806640624,Campus
18,9.989929986231536,0.18228429921188402,-0.358682378,-0.016012501,0.031477908,-0.021717695,-59.75,45,0.3904693126678467,1.3760613203048706,5.815999984741211,1.6706757545471191,352.63909912109375,154.6999969482422,-86.910441,40.4258497,0.004450883,0.019695376534268116,-0.022066116,9.989929986231536,0.18228429921188402,-0.358682378,0.1633708407577959,-0.209431191,0.004389663,0.29008352626295925,0.022536467872960556,0.013599036122419085,0.9561106036010297,0.035981112,-0.03888978,-0.588370152,-108.9001258,67.03485061645507,-19.5370796,-46.39867317,16.271261615753176,9.933361788,Campus
19,9.802125385,0.20933713481842892,-0.367275042,-0.070466864,0.022948285,0.032323012,-52.55555556,45,0.4365968704223633,1.3860305547714233,6.439000129699707,1.5978699922561646,355.5435485839844,154.6999969482422,-86.9104391,40.4258627,-0.050003482,0.011179096788818975,0.03198497,9.802125385,0.20933713481842892,-0.367275042,-0.103489455,-0.146518697,-0.151700962,0.27523189435884793,0.015265904314978753,0.014643114291581334,0.9608670444164461,0.021359532,-0.0364408,-0.557585864,-108.257552,67.97022422790528,-20.32190563,-44.17778526,17.62985363960266,8.358341875076293,Campus
20,9.724646119238104,0.1589629894429908,0.037832153,-0.266646577,-0.066624934,-0.047590287,-52.125,45,0.4075993597507477,1.3960222005844116,6.519000053405762,1.6969138383865356,357.1371765136719,154.6999969482422,-86.9104356,40.425874,-0.246183191,-0.078399895,-0.047928015,9.724646119238104,0.1589629894429908,0.037832153,-0.194008671,-0.314200575,-0.074884154,0.23456204410355824,1.2465957759279542E-4,0.023616642,0.9707253850423373,-0.011003633,-0.046488751,-0.474371179,-108.9336754,65.34868877,-21.95267965,-44.85427509,15.008927688598632,6.726469864845276,Campus
21,9.757913293190374,-0.081573761,0.065448343,0.012655806393154617,0.075092699,0.003046825,-40.66666667,45,0.41656288504600525,1.4060618877410889,6.269999980926514,1.633128046989441,358.19842529296875,154.6999969482422,-86.9104343,40.4258872,0.033119189168679196,0.063320545,0.002699884,9.757913293190374,-0.081573761,0.065448343,-0.144688916,-0.095909812,-0.087442721,0.169370175,-0.007461369,0.002052174,0.9851010951023658,-0.015487826,-0.001476949,-0.340573165,-105.14521,71.23323684692383,-25.06904755,-41.06507713,20.893353519439696,3.610833936,Campus
22,9.865625168513326,-0.167607935,-1.121313274,0.17214031524739218,0.086240662,-0.039085329,-44.5,45,0.4083552062511444,2.076592206954956,5.953000068664551,1.6976284980773926,358.4147949,154.29998779296875,-86.9104362,40.4259039,0.19260369910682254,0.074469991,-0.039418923,9.865625168513326,-0.167607935,-1.121313274,0.03708739,-0.007143213,-0.003754704,0.23993039319237458,0.052668628,-0.021782396,0.9679186974914329,0.11314837565844499,0.016158226,-0.4870044,-106.8027019,72.78654037475586,-18.18629566,-42.72220325,22.447267532348633,10.493585782051086,Campus
23,9.744206524812258,0.046251654920454785,-0.938955682,-0.027517778,-0.012651359,0.064192337,-43.77777778,45,0.2687608301639557,2.076592206954956,5.75,1.527975321,351.1891784667969,154.29998779296875,-86.9104406,40.4259176,-0.007054397,-0.02442796,0.063832056,9.744206524812258,0.046251654920454785,-0.938955682,-0.12989122,0.095051901,-0.046816423,0.2758629842869286,0.041939936,-0.014857965,0.9598748602913422,0.089178632,0.005467812,-0.559997982,-107.5265282,71.47211273193359,-17.88129559,-43.44578529,21.131375522613524,10.798219833374024,Campus
24,9.926543420958287,0.17224547699166154,-0.88388952,0.070609198,0.009269459,-0.025009157,-45.11111111,45,0.4096561372280121,2.0965616703033447,5.7779998779296875,1.6186997890472412,352.3000488,154.29998779296875,-86.9104431,40.425931,0.091072582,-0.002508626,-0.025363506,9.926543420958287,0.17224547699166154,-0.88388952,0.036532337,-0.049297529,-0.117519793,0.2943197754980291,0.040048164921333486,-9.38E-04,0.9544870488851973,0.077189875,-0.021619789,-0.597201714,-107.776506,70.18232833862305,-18.02781767,-43.69637329,19.842811622619628,10.651575775146485,Campus
25,10.247169999242987,0.003153647,-1.288134262,0.006903167,0.052432044336879716,-0.056361039,-47.375,45,0.4096561372280121,2.0965616703033447,5.7779998779296875,1.6186997890472412,352.3000488,154.29998779296875,-86.9104431,40.425931,0.02736655,0.040653960752183374,-0.056724283,10.247169999242987,0.003153647,-1.288134262,0.34784646173125333,-0.166044679,-0.202990991,0.2982129214458095,0.056225022843595845,-0.006498848,0.9524242154602865,0.1114409114912297,-0.020673101,-0.605706985,-108.5365661,70.76988052368164,-16.30163974,-44.45606724,20.43024164199829,12.377753772735595,Campus
26,9.693553906042599,0.21356813209945136,-1.380763209,-0.146521112,-0.021049268,0.014454758674568998,-49.77777778,45,0.4128369688987732,2.1165220737457275,5.953000068664551,1.616868495941162,352.4187927246094,154.29998779296875,-86.9104479,40.4259565,-0.12605773,-0.032821292,0.014108223515974645,9.693553906042599,0.21356813209945136,-1.380763209,-0.04803973,-0.152580437,0.051064123,0.28039913796461546,0.074140282,-0.003394681,0.9564057582846055,0.14405816234648228,-0.034770397,-0.567887201,-109.3841,69.74617874145508,-15.11640966,-45.30457714,19.40641767501831,13.563959732055665,Campus
27,9.860406861721891,0.15378822327492017,-0.988552277,-0.067276227,-0.084892943,0.007407267,-51.625,45,0.3987434506416321,2.1265950202941895,5.915999889373779,1.6144081354141235,352.9183654785156,154.29998779296875,-86.9104514,40.4259724,-0.046812843,-0.096662129,0.007052914,9.860406861721891,0.15378822327492017,-0.988552277,-0.011190336,0.049704826,-0.088332657,0.21261269346024225,0.045469270684548375,-0.004408077,0.9756681178379984,0.09097318,-0.010547439,-0.428524616,-109.1472982,71.22750282287598,-19.93492155,-45.06740898,20.887619609832765,8.745081820487975,Campus
28,9.633527177051434,0.3035487202583875,-0.660514881,0.10888500635069116,0.035919896,0.012827793251524128,-47,45,0.4142172634601593,2.136577606201172,6.170000076293945,1.6455131769180298,354.3129883,154.29998779296875,-86.9104543,40.4259887,0.12934838768854304,0.024143294026641157,0.012461582567199196,9.633527177051434,0.3035487202583875,-0.660514881,-0.254212616,0.092210777,-0.066982736,0.23574522513787724,0.031383201895842275,0.00342673,0.9708020258875727,0.059917844,-0.021398867,-0.475945296,-109.2009779,70.43706497192383,-20.28567165,-45.1204792,20.097181701660155,8.394575810432434,Campus
29,9.667889192266372,0.179331029,-0.857591703,0.041846002,0.026029210257371073,0.034770848,-48.625,45,0.4282605051994324,2.146618366241455,6.304999828338623,1.6597975492477417,355.4877014160156,154.29998779296875,-86.9104563,40.4260054,0.062309386,0.014251126,0.034416498120724975,9.667889192266372,0.179331029,-0.857591703,-0.216825791,-0.069223145,-0.011848316,0.2742223644140855,0.044526914,5.361398144283793E-4,0.9603166823248261,0.08534858,-0.025087196,-0.555333018,-109.5285477,69.44971848,-17.63912571,-45.44951324,19.10922567367554,11.04136580467224,Campus
30,10.09474641084671,0.3414517666499775,-0.617477663,-0.158250955,-0.061360497,0.015926509302163733,-49.88888889,45,0.31193163990974426,2.146618366241455,6.375999927520752,1.455678105354309,352.0810852050781,154.29998779296875,-86.9104591,40.4260184,-0.137787571,-0.073129685,0.015581051,10.09474641084671,0.3414517666499775,-0.617477663,0.18636074806880026,-0.037629803,-0.010254274,0.24827213324968098,0.034447395834999464,0.010453284596594828,0.9674891129280757,0.061817463,-0.03711778,-0.501040129,-109.8702698,68.67965515136719,-19.46997969,-45.78952724,18.339283695220946,9.209535875320434,Campus
31,10.11258250301324,0.2586513510633947,-0.460098558,-0.044479169,0.032800421,-0.031965695,-54.375,45,0.3310382068157196,2.1566319465637207,6.468999862670898,1.5156053304672241,354.9749755859375,154.29998779296875,-86.9104582,40.4260313,-0.024015785,0.02102382,-0.032314116,10.11258250301324,0.2586513510633947,-0.460098558,0.18375816622984062,0.16275129206840275,0.11664690637906779,0.24171451819174497,0.027757411427125935,-0.002060903,0.9695045369342693,0.055315271496899354,-0.009449773,-0.488640046,-109.3233443,70.48525459,-20.61812159,-45.24406528,20.145127601623535,8.062125873565673,Campus
32,10.111490587586339,0.025310487852621716,-0.84556951,-0.05878367,0.028468150690704293,0.001263208,-56.11111111,45,0.41632238030433655,2.176450729370117,6.573999881744385,1.6264362335205078,358.5662841796875,154.29998779296875,-86.9104555,40.4260481,-0.038320288,0.016694514937608422,9.088596821880167E-4,10.111490587586339,0.025310487852621716,-0.84556951,0.20452267452351097,-0.038155942,-0.093562289,0.22415762445301685,0.040017544,-0.004675179,0.9734661000446209,0.08026725,-0.008937434,-0.452475921,-109.3973979,70.82514663696288,-20.05289549,-45.31689922,20.485751724243165,8.626131772994995,Campus
33,9.902040241,0.24309509936539295,-0.765706147,0.021085978,0.004534366,-0.033765463,-16.22222222,45,0.4116450250148773,2.186591386795044,6.513999938964844,1.6335729360580444,359.9947204589844,154.29998779296875,-86.9104535,40.4260657,0.041549360396367356,-0.007247936,-0.034125217,9.902040241,0.24309509936539295,-0.765706147,0.021841186743516188,-0.116202645,-0.126455798,0.21762882015452936,0.034013477,0.010636142354996991,0.9749779535027651,0.06203366,-0.03519131,-0.438035001,-110.4580658,69.11970878601075,-20.88212957,-46.3782991,18.78043560028076,7.797629861831665,Campus
34,9.602205628330267,-0.056120984,-0.253276211,-0.065176808,-0.009926269,-0.010280618,-34.25,45,0.4245273172855377,2.1965651512145996,6.4710001945495605,1.7157949209213257,358.8538513183594,154.29998779296875,-86.9104489,40.4260834,-0.044713428,-0.021711766,-0.010632005,9.602205628330267,-0.056120984,-0.253276211,-0.323673521,-0.155847844,-0.00564827,0.23569480452722716,0.013325714,0.002195993,0.9713227268561576,0.02490615,-0.01017369,-0.476125059,-109.2463621,70.07753051757813,-21.54727352,-45.16549706,19.737891540527343,7.1326078605651855,Campus
35,9.728429896160236,0.1712058777751365,-0.518653023,-0.064571892,0.074993363,0.026247157555331194,-56.22222222,45,0.3843216896057129,2.2066714763641357,6.511000156402588,1.6516847610473633,358.8728332519531,154.29998779296875,-86.9104462,40.4260993,-0.04410851,0.063213796,0.025900221,9.728429896160236,0.1712058777751365,-0.518653023,-0.183717501,0.073182794,0.037470285753601965,0.21637475418234334,0.028402973988174814,-0.00120237,0.9756240005632049,0.056037691937198916,-0.009871714,-0.436241068,-108.5606002,71.07085472106934,-21.27021156,-44.48071133,20.73121570587158,7.4095478439331055,Campus
36,9.960633276,-0.110601898,-0.720705523,-0.074120086,0.022005328176163352,0.013036843,-51,45,0.3843216896057129,2.2066714763641357,6.511000156402588,1.6516847610473633,358.8728332519531,154.29998779296875,-86.9104462,40.4260993,-0.053656706,0.010230209346119207,0.012675078569920463,9.960633276,-0.110601898,-0.720705523,0.006909657,-0.084590991,-0.041823796,0.20956877206714408,0.032728677,-0.007691829,0.9762556905885345,0.068333443,0.001812623,-0.422864691,-108.6582,71.92656311035157,-21.34060556,-44.57696918,21.586557636260988,7.3395198583602905,Campus
37,9.978601826047434,0.29724142679637205,-0.361487548,0.064631198,-0.049669889,-0.003060168,-50.66666667,45,0.28251245617866516,2.2164909839630127,6.409999847412109,1.572230339050293,354.0705261230469,154.29998779296875,-86.9104455,40.4261322,0.085094582,-0.061446489,-0.00342045,9.978601826047434,0.29724142679637205,-0.361487548,0.052507609,-0.014900311,-0.170149707,0.1842204586973468,0.012442455,0.013811113905230564,0.982406019,0.019550634313298104,-0.031669338,-0.370642935,-109.7978022,69.74520248413086,-24.9730335,-45.71766914,19.405563640594483,3.7064819359779357,Campus
38,10.254412401069715,0.006565736,-0.508489327,0.097213674,-0.004093566,-0.065725387,-57,45,0.28251245617866516,2.2164909839630127,6.409999847412109,1.572230339050293,354.0705261230469,154.29998779296875,-86.9104455,40.4261322,0.11767705573216623,-0.015864236,-0.066058978,10.254412401069715,0.006565736,-0.508489327,0.37620668040895927,-0.17192521,-0.076708707,0.2139859436785133,0.022664328686694064,0.004460021,0.976313194,0.042522872,-0.01829413,-0.431154347,-109.8114657,69.45459907531739,-22.85059946,-45.73182095,19.114715766906738,5.829159891605377,Campus
39,9.718847024787976,-0.078298152,-0.284359679,-0.089959007,0.029374999603672992,0.011222850244778853,-65.22222222,45,0.3065779209136963,2.236529827,6.250999927520752,1.5352121591567993,355.63238525390625,154.29998779296875,-86.9104399,40.4261607,-0.069495623,0.017597099942996956,0.01087778,9.718847024787976,-0.078298152,-0.284359679,-0.212213544,0.026606844,0.004575585,0.23070067611451334,0.013465267967009052,-0.009020325,0.9725936920597003,0.030257714493647933,0.011618624375842046,-0.466068408,-109.0363995,71.11148063659668,-22.15776157,-44.95602325,20.77159752,6.522485895,Campus
40,9.587386997000685,-0.068996926,-0.37616973,-0.025169279,0.008857286,-0.020484141,-62.5,45,0.3065779209136963,2.236529827,6.250999927520752,1.5352121591567993,355.63238525390625,154.29998779296875,-86.9104399,40.4261607,-0.004705896,-0.002923764,-0.020832558,9.587386997000685,-0.068996926,-0.37616973,-0.321505102,0.17986105874325464,-0.038182314,0.19234543821765382,0.014309847589104112,-0.015511005,0.9806556996789951,0.0341591,0.024997113466950008,-0.388098327,-108.4132238,71.65535667419434,-23.27479355,-44.33370121,21.315351581573488,5.405697898864746,Campus
41,10.159869726421764,-0.429212564,-0.485124464,-0.020175751,-0.014974652,-0.010049328,-55.66666667,45,0.41697177290916443,2.2665114402770996,6.052000045776367,1.7365347146987915,358.9596862792969,154.29998779296875,-86.9104437,40.4261974,2.8763147233759314E-4,-0.026752737,-0.010418503,10.159869726421764,-0.429212564,-0.485124464,0.2579038953318179,0.002367999,0.11948128796896888,0.20923827270280967,0.025093987061940496,-0.027493878,0.9768761465850385,0.060958915236360815,0.043400071452832915,-0.423324141,-107.497858,72.78117263793945,-21.43735157,-43.41931126,22.440435543060303,7.242285885810852,Campus
42,10.258419814619046,-0.30014534,-0.793084222,-0.039224697,0.074166051,0.051936842,-56,45,0.41697177290916443,2.2665114402770996,6.052000045776367,1.7365347146987915,358.9596862792969,154.29998779296875,-86.9104437,40.4261974,-0.018761314,0.062371657,0.051567667,10.258419814619046,-0.30014534,-0.793084222,0.35402725275280406,-0.155953168,-0.013916369,0.19981566404254691,0.036926447,-0.014816928,0.978668799,0.078562719,0.014426181,-0.403447238,-107.896676,71.80749053955078,-21.12881355,-43.81764122,21.46711965560913,7.550579829216003,Campus
43,9.729455622342916,-0.353709226,-0.699929386,-0.107687034,-0.020645748,-0.045651938,-56,45,0.4207634925842285,2.2865521907806396,6.179999828338623,1.7809433937072754,10.872867584228516,154.29998779296875,-86.9104383,40.4262307,-0.087223652,-0.03242235,-0.0460137,9.729455622342916,-0.353709226,-0.699929386,-0.167013266,-0.159455863,-0.158916864,0.17628962192141895,0.025193759744864826,-0.014161557,0.9835600268493578,0.054799774,0.018825236,-0.355173158,-108.1460441,72.09467857,-22.82754164,-44.06664314,21.75430768966675,5.852461884021759,Campus
44,9.567056683660711,-0.332160952,-0.524637983,-0.030660974,0.014894593439236718,0.001028952,-59.66666667,45,0.4193187355995178,2.2964985370635986,6.236000061035156,1.7335058450698853,11.936357498168945,154.29998779296875,-86.9104296,40.4262449,-0.010197591,0.003113542,6.71634045361713E-4,9.567056683660711,-0.332160952,-0.524637983,-0.339048946,-0.007832111,0.060681764795942214,0.17362449455608442,0.02646704,-0.021530966,0.9837222880530125,0.06003953,0.033314153,-0.350576855,-108.0094041,73.24513824,-23.05909748,-43.92951511,22.905011539459228,5.620295882225037,Campus
45,9.701600671971885,-0.27265981,-0.761004725,-0.022880085,0.022138765,0.003928992,-56.625,45,0.41812679171562195,2.3064777851104736,6.304999828338623,1.7627416849136353,1.445804476737976,154.29998779296875,-86.9104277,40.4262591,-0.002416703,0.010360680681029424,0.003577607,9.701600671971885,-0.27265981,-0.761004725,-0.226909119,0.087194087,-0.064428187,0.1807464263537555,0.029398633872421042,-0.023957416,0.9821891136539792,0.066993914,0.036926471863339826,-0.365242381,-108.3444158,73.75461044311524,-22.86365353,-44.26342918,23.414971504211426,5.816349868774414,Campus
46,10.166734644510214,-0.317853382,-0.698463189,0.009667833,0.057948259896455474,7.914585562852713E-4,-57.22222222,45,0.4143008887767792,2.316596508026123,6.454999923706055,1.7665265798568726,354.1800842285156,154.29998779296875,-86.9104284,40.4262756,0.030131215211720422,0.046165957708860964,4.463892322606765E-4,10.166734644510214,-0.317853382,-0.698463189,0.2850388426047105,-0.081976087,-0.045159277,0.17366565835590547,0.031305343,-0.016964472,0.9837611810519145,0.067977236,0.022985693821213387,-0.349995809,-109.002606,71.98988075256348,-23.14876751,-44.92247307,21.649387683868408,5.531235904693603,Campus
47,10.120423011409427,-0.108298459,-0.737872164,-0.006120334,-0.052021354,-0.046677921,-55.125,45,0.3860592842102051,2.3264849185943604,6.552999973297119,1.773695468902588,355.6535339355469,154.29998779296875,-86.9104315,40.4262905,0.014343049083339068,-0.06379499,-0.047021896,10.120423011409427,-0.108298459,-0.737872164,0.2235431208193881,-0.211068622,0.013513729,0.15820475703882939,0.03793842,-6.34E-04,0.9860922717353673,0.075784931,-0.010400572,-0.31778073,-109.1146017,69.39799079895019,-22.66027962,-45.03483505,19.057497692108154,6.019967861175537,Campus
48,9.667145752212376,-0.551304591,-0.365564635,0.056269114,-0.014251125,-0.048047882,-45.33333333,45,0.41581568121910095,2.3366024494171143,6.643000126,1.7826083898544312,357.47576904296875,154.29998779296875,-86.9104356,40.4263052,0.076732498,-0.02602921,-0.048385922,9.667145752212376,-0.551304591,-0.365564635,-0.242456186,0.030320341147265388,-0.178781314,0.18652474967021387,0.003643239,-0.030308211,0.9814977235007054,0.018860387,0.058471836131608605,-0.376195336,-107.1867576,74.21845458984374,-24.5539636,-43.10699131,23.87857157,4.125551919937134,Campus
49,9.651579535924471,-0.393967318,-0.730906658,-0.097000173,0.010336958640481083,0.071618876,-42.875,45,0.4040665626525879,2.346498727798462,6.668000221252441,1.9219717979431152,358.68963623046875,154.29998779296875,-86.910436,40.4263249,-0.07653679,-0.001441126,0.071245249,9.651579535924471,-0.393967318,-0.730906658,-0.21304506,0.020832334907309524,-0.058656319,0.16597110799794057,0.030182723733551294,-0.02654923,0.9847462350882373,0.068476261,0.042959834331447636,-0.335412666,-107.5333597,73.69275672912597,-22.97784546,-43.45237324,23.351897525787354,5.702157878875733,Campus
50,9.774369781457105,-0.227617259,-0.73987586,-0.088460172,0.009823966,0.026769045654467298,-42,45,0.4008134603500366,2.3564653396606445,6.668000221252441,1.749136209487915,357.95721435546875,154.29998779296875,-86.9104377,40.4263439,-0.067996789,-0.001963013,0.026398384753723168,9.774369781457105,-0.227617259,-0.73987586,-0.159492215,-0.051439521,0.13195203982510614,0.14107923571345876,0.041855708551276655,-0.014697817,0.9886315129335644,0.087195465,0.017685076,-0.284234876,-108.0563738,72.17214881896973,-23.34372355,-43.97709511,21.83250959396362,5.336279902458191,Campus
51,10.197489905125886,-0.172997596,-0.603354293,0.055486281,-0.020525655,-0.010927049,-31.55555556,45,0.28598126769065857,2.3564653396606445,6.638000011444092,1.5648611783981323,0.41976892948150635,154.29998779296875,-86.9104428,40.4263575,0.075949665,-0.032303741,-0.011272503,10.197489905125886,-0.172997596,-0.603354293,0.3118063500783976,0.020878792496271503,-0.134530094,0.13128609557464285,0.022609554,-0.013171871,0.9906190263414846,0.048603066849043065,0.020297663,-0.263986573,-107.3649998,72.02099105834961,-25.73370354,-43.28547722,21.680619583129882,2.94556795,Campus
52,10.02963228596067,-0.272639495,-0.479833538,-0.083650833,0.010005559418529559,0.003430143,-26.5,45,0.28598126769065857,2.3564653396606445,6.638000011444092,1.5648611783981323,0.41976892948150635,154.29998779296875,-86.9104428,40.4263575,-0.06318745,-0.001773809,0.003065984,10.02963228596067,-0.272639495,-0.479833538,0.15223865325634295,-0.039972299,0.14604525067485297,0.1598828066713535,0.029022061,-0.015567051,0.9862782691533749,0.062418135218859576,0.021576182,-0.322076592,-107.2004221,72.33550629,-24.31594145,-43.12077713,21.995745582580568,4.364183917045593,Campus
53,9.891577470649793,-0.031913983,-0.318437069,-0.087938282,0.053643361,0.02806339,-28.22222222,45,0.31133946776390076,2.3767049312591553,6.688000202178955,1.5132129192352295,355.2689208984375,154.29998779296875,-86.9104452,40.4263854,-0.067474901,0.041863794,0.027714972076847137,9.891577470649793,-0.031913983,-0.318437069,-0.024155608,0.023863466546952147,-0.024925215,0.10755246385787297,0.014358819542041283,-0.004308362,0.9938619669201305,0.029566547212878116,0.005597876,-0.215556395,-107.9264439,70.86321060180664,-27.84967148,-43.84643307,20.52283971786499,0.8303319853916764,Campus
54,9.95090143,-0.276513303,-0.786326821,0.028964836064509107,0.047078234,-0.068400068,-30.375,45,0.31133946776390076,2.3767049312591553,6.688000202178955,1.5132129192352295,355.2689208984375,154.29998779296875,-86.9104452,40.4263854,0.049428218853596634,0.035292737,-0.068739592,9.95090143,-0.276513303,-0.786326821,0.053871914,-0.243585132,-0.048814947,0.13040341972147376,0.036398123,-0.006329168,0.9904142502442147,0.074351242,0.003258818,-0.261869906,-108.5219258,69.98163887023925,-24.00484158,-44.44191521,19.64114565,4.675283899307251,Campus
55,9.767728519,-0.124934963,-1.052911653,0.006250806,0.050998333805394404,0.028155315604097057,-32.33333333,45,0.3027072846889496,2.3966004848480225,6.732999801635742,1.5762786865234375,0.065958552,154.29998779296875,-86.9104469,40.4264117,0.026714190252993292,0.039206905932464065,0.027797997,9.767728519,-0.124934963,-1.052911653,-0.096267737,0.019893269,0.074467095,0.14288604172688085,0.054917557327782064,-0.015150033,0.9874199131160106,0.1137293901258302,0.014517947556722222,-0.288155176,-108.0673539,70.44731254577637,-20.99778563,-43.98648926,20.106819725036623,7.682461838722229,Campus
56,9.582414929683392,0.072935076,-1.155414104,-0.080786031,-0.003838552,0.038419622,-37.75,45,0.3140401244163513,2.4066479206085205,6.7210001945495605,1.492319941520691,0.25023195147514343,154.29998779296875,-86.9104445,40.4264251,-0.06032265,-0.015627015,0.038069719,9.582414929683392,0.072935076,-1.155414104,-0.224851733,0.05927317,0.19749871301419528,0.15354927289254458,0.067568962,-0.009687025,0.9851850155487801,0.13725184142878913,-0.00105017,-0.308706043,-108.0168459,70.61042694091798,-19.38775152,-43.93634716,20.27090961456299,9.292861785888672,Campus
57,9.779100251,0.22207368608310962,-1.37581785,0.055581169917239145,0.012784796265107624,-0.008357636,-41.88888889,45,0.3140401244163513,2.4066479206085205,6.7210001945495605,1.492319941520691,0.25023195147514343,154.29998779296875,-86.9104445,40.4264251,0.076044553,0.001002262,-0.008710505,9.779100251,0.22207368608310962,-1.37581785,-0.097268077,0.052253436478017605,-0.196448349,0.1562597993218783,0.059341735523013237,-2.67E-04,0.9854034931914321,0.11784655926297012,-0.017384247,-0.313266737,-108.7113921,69.74556884765624,-20.57590961,-44.63321114,19.40580764770508,8.103727831840516,Campus
58,9.920602020708102,0.17162113763319636,-0.943245457,-0.026248641,-0.031815949,-0.016169659,-37,45,0.3147681653499603,2.426555871963501,6.866000175476074,1.4869590997695923,1.6477890014648438,154.29998779296875,-86.9104499,40.4264573,-0.005785256,-0.043595516,-0.016526976,9.920602020708102,0.17162113763319636,-0.943245457,0.047059383207154505,0.10222265703006855,-0.175374587,0.16939396244808308,0.038562519,-0.003516132,0.9844099323726395,0.077589783,-0.005905099,-0.340401066,-107.1142902,70.22271057128906,-21.41404961,-43.03342525,19.881851596832277,7.265465860366821,Campus
59,10.202144882054005,-0.300456049,-0.880785239,0.038647835792149775,0.028072542931812886,-0.065381213,-37.33333333,45,0.2853592336177826,2.4365439414978027,7.002999782562256,1.4711066484451294,0.9882450699806213,154.29998779296875,-86.9104504,40.4264723,0.05911122,0.01628143,-0.065736561,10.202144882054005,-0.300456049,-0.880785239,0.2896485924720764,-0.187277766,-0.048366025,0.15493048125734696,0.041107177,-0.011161372,0.986652071,0.084932884,0.009684946,-0.311693541,-108.224856,73.37909446716309,-22.62782761,-44.14484524,23.039333477020264,6.0521758580207825,Campus
60,10.027256891565415,-0.199193773,-0.932683931,-0.090654478,-0.011505278,-0.022721443,-39,45,0.40580272674560547,2.4566640853881836,7.074999809265137,1.5319066047668457,355.5464172363281,154.29998779296875,-86.9104511,40.4264858,-0.070191094,-0.023289291,-0.02308617,10.027256891565415,-0.199193773,-0.932683931,0.15235505983667466,-0.073878541,0.079279178,0.15942539752108378,0.049493423,-0.014255152,0.9853715086446225,0.10217643109629455,0.012480451,-0.321491439,-109.9049177,70.52148864746094,-20.73158167,-45.82478527,20.18062957763672,7.948909840583801,Campus
61,9.658251118891448,0.043558664077404635,-0.799272457,0.022939391832039194,0.024306383851951767,0.002375189,-40.75,45,0.3931216299533844,2.466616392,7.048999786376953,1.707261323928833,355.58001708984375,154.29998779296875,-86.9104519,40.4264989,0.043402771,0.012531264298550279,0.002011942,9.658251118891448,0.043558664077404635,-0.799272457,-0.242275983,0.013150984511792082,-0.090610341,0.1200431477531646,0.035454291,-0.002601119,0.9915015737987259,0.071484826,-0.003106558,-0.24115795,-109.1037437,70.44999671936036,-22.5485277,-45.02409916,20.1102357,6.131597871780396,Campus
62,9.535424090348757,0.1725506978781106,-1.066816392,-0.080560672,0.007952876,0.0661939,-39.44444444,45,0.4160914719104767,2.4766159057617188,7.011000156402588,1.7237915992736816,358.5538330078125,154.29998779296875,-86.910447,40.4265155,-0.06009729,-0.003825207,0.065836584,9.535424090348757,0.1725506978781106,-1.066816392,-0.321255693,0.034073656,0.006463198,0.11538687138592155,0.054515725,5.59497908892526E-4,0.9913640323194485,0.10836831241556742,-0.013309057,-0.230970453,-110.3722997,70.65093063354492,-20.87358959,-46.29265518,20.310193576812743,7.805803842544556,Campus
63,9.847766089207918,0.12883782155757534,-1.232739241,0.098969115,0.023315979610875393,-0.045745343,-41.75,45,0.4304961860179901,2.486595630645752,6.881000042,1.6739963293075562,356.6767578,154.29998779296875,-86.9104476,40.4265321,0.11943249973622196,0.011546791867958834,-0.046096728,9.847766089207918,0.12883782155757534,-1.232739241,-0.029212924,0.034927636,-0.01767858,0.11433459264994825,0.061042354,-0.001592569,0.9904633934058032,0.12322023351794308,-0.01043754,-0.229122189,-111.3157259,69.48680686950684,-20.36875353,-47.23534916,19.14777766227722,8.310761876106262,Campus
64,10.104858069743925,-0.155010764,-1.450721322,-0.070099171,-0.021951954,-0.030875957,-44.11111111,45,0.4042017459869385,2.4965577125549316,6.742000102996826,1.8189107179641724,354.34246826171875,154.29998779296875,-86.9104497,40.4265491,-0.049635789,-0.03372707,-0.031222894,10.104858069743925,-0.155010764,-1.450721322,0.2588972397220945,0.088306523,-0.00462613,0.16613949690628976,0.068332687,-0.023646159,0.9828530683100802,0.14344269247020333,0.024367455749103383,-0.336166668,-108.621722,71.04913848876953,-16.91468973,-44.5421991,20.70876766204834,11.765191764831544,Campus
65,10.185578091630658,0.11820369366741766,-0.975795398,-0.053754559,0.050560827613270916,0.099761929,-44.75,45,0.4042017459869385,2.4965577125549316,6.742000102996826,1.8189107179641724,354.34246826171875,154.29998779296875,-86.9104497,40.4265491,-0.033291176,0.038765307381534234,0.099391897,10.185578091630658,0.11820369366741766,-0.975795398,0.35247278213500977,-0.295254192,0.054790412,0.1560520423719516,0.055588862,0.012202225676166844,0.9858658800904567,0.10631460495866261,-0.041373185,-0.311814794,-110.9455779,67.22822029113769,-18.82362362,-46.86544518,16.888581647872925,9.856257781982421,Campus
66,9.767066430119636,0.3132739154355221,-0.967414705,-0.063184142,-0.035322391,-0.045399885,-48.66666667,45,0.32326072454452515,2.5064995288848877,6.448999881744385,1.5615004301071167,353.8541259765625,154.29998779296875,-86.9104504,40.4265827,-0.04272076,-0.047106404,-0.045752756,9.767066430119636,0.3132739154355221,-0.967414705,-0.103606243,-0.089291912,-0.068239141,0.13761710050036607,0.047599348,0.014264080853165282,0.9886571411947602,0.090920078,-0.040707093,-0.274201003,-108.7477483,66.85880458831787,-19.63846163,-44.66859112,16.51904378890991,9.040565853118897,Campus
67,9.448594509976582,-0.170755776,-0.705859448,-0.015917614,-0.012347419,-0.051843437,-42.125,45,0.32326072454452515,2.5064995288848877,6.448999881744385,1.5615004301071167,353.8541259765625,154.29998779296875,-86.9104504,40.4265827,0.004545771,-0.024131433,-0.052157756,9.448594509976582,-0.170755776,-0.705859448,-0.462052035,0.032128062,-0.150877252,0.11135112031281573,0.026503769979242562,-0.013096274,0.9930467709754277,0.055961264,0.020355199009306657,-0.223703442,-108.5956139,71.8078566,-23.29516752,-44.51560326,21.468095588684083,5.3848358917236325,Campus
68,9.919630326,-0.203441689,-0.678342214,-0.050101337,0.080931331,0.088509098,-45.11111111,45,0.4056049585342407,2.536486864089966,6.3520002365112305,1.7116888761520386,359.5461120605469,154.29998779296875,-86.9104476,40.4266157,-0.029637952,0.069156214,0.088135474,9.919630326,-0.203441689,-0.678342214,0.006515531,-0.037605879,0.068042305,0.14545160835807763,0.034981314,-0.013659925,0.9882910824516444,0.073600716,0.017047932520689604,-0.292767942,-107.2539799,70.83551734924316,-21.00693552,-43.17421333,20.49551158905029,7.673799853324891,Campus
69,9.959979038794064,0.29488635457401136,-0.856470791,-0.097960922,-0.008442145,0.040252166359970185,-44.66666667,45,0.4195221960544586,2.5465452671051025,6.330999851226807,1.7131011486053467,356.1057129,154.29998779296875,-86.9104487,40.4266317,-0.077497539,-0.020217266,0.039908193532734636,9.959979038794064,0.29488635457401136,-0.856470791,0.071436331,-0.077332957,0.10719347463070768,0.13607220134688813,0.051398779,0.011664193150139803,0.9888037755651381,0.09918174,-0.036722452,-0.271579557,-108.213876,69.75728057861328,-19.7258136,-44.13349918,19.416787643432617,8.952847862243653,Campus
70,9.850469663,0.4612397967828709,-0.869204441,-0.014873835,-3.01E-04,-0.012606882,-48.25,45,0.31851205229759216,2.5465452671051025,6.359000205993652,1.5608034133911133,355.22247314453125,154.29998779296875,-86.910455,40.4266479,0.00558955,-0.012080541,-0.012968644,9.850469663,0.4612397967828709,-0.869204441,-0.013340307,-0.016426769,-0.161350798,0.10170387111387207,0.036516839746855996,0.020559755237592223,0.9934299084746722,0.068665225,-0.047654752,-0.202372694,-111.187504,69.02357238769531,-22.55206564,-47.10822506,18.68307954788208,6.127815895080566,Campus
71,10.12208986,0.23013494793072486,-0.816240002,0.08182981,0.012127986,-0.063547392,-49.11111111,45,0.31851205229759216,2.5465452671051025,6.359000205993652,1.5608034133911133,355.22247314453125,154.29998779296875,-86.910455,40.4266479,0.10229319195235961,3.4990349730241646E-4,-0.063888398,10.12208986,0.23013494793072486,-0.816240002,0.14112972055824058,-0.06084308,-0.146157649,0.11912325169276265,0.03701131,0.012675286013829676,0.9917791375836122,0.070833328,-0.033654635,-0.237704241,-111.2496021,68.84606285095215,-22.00050354,-47.16995693,18.505935697555543,6.679499883651733,Campus
72,9.998676647260352,0.3230426722540728,-0.377348705,0.019934762412538894,-0.063607407,-0.005341978,-46.5,45,0.2765709161758423,2.5665321350097656,6.531000137329102,1.4782263040542603,0.047503587,154.29998779296875,-86.9104545,40.4266789,0.040398148,-0.0753809,-0.005697326,9.998676647260352,0.3230426722540728,-0.377348705,0.16130880667613104,-0.160237834,0.19058799972900978,0.13697265539891446,0.030819706,0.018864660043338796,0.9892948413124452,0.056690488,-0.045625298,-0.273767491,-111.7052715,67.62923480987548,-21.37879164,-47.62526115,17.28898572921753,7.300723843574524,Campus
73,9.770940287599286,0.1464180962286564,-0.603926361,-0.045890641,0.046955176,-0.081831293,-40.55555556,45,0.28055664896965027,2.5765912532806396,6.627999782562256,1.482131004333496,358.49139404296875,154.29998779296875,-86.9104537,40.4266885,-0.025427258,0.035174125299147034,-0.082178232,9.770940287599286,0.1464180962286564,-0.603926361,-0.137384757,0.009169292,-0.231889293,0.1237784423006391,0.019498415,0.004992948,0.9914716945111173,0.037516136,-0.013951295,-0.248392276,-110.4735599,68.20190277,-22.97259954,-46.39403721,17.862507734298706,5.707037887573242,Campus
74,9.873503511391798,-0.15862904,-0.959356357,0.017850974289863146,0.054688620778903796,-0.039335896,-48.625,45,0.28055664896965027,2.5765912532806396,6.627999782562256,1.482131004333496,358.49139404296875,154.29998779296875,-86.9104537,40.4266885,0.038314356052687445,0.042895710547861544,-0.039703591,9.873503511391798,-0.15862904,-0.959356357,-0.003791749,-0.013183062,-0.037142511,0.13936867658953064,0.044736964,-0.013556543,0.9885742930532659,0.093096644,0.014550889,-0.280787582,-107.0152262,69.42043869018555,-19.39067966,-42.93436115,19.08055563926697,9.289323883,Campus
75,9.542568069237928,-0.270288299,-1.070687472,0.001447053,-0.024355312,0.034093283948678416,-51.22222222,45,0.2902344763278961,2.596628189086914,6.698999881744385,1.4669251441955566,357.81854248046875,154.29998779296875,-86.9104592,40.4267198,0.021910440406165292,-0.036134877,0.033728554243565474,9.542568069237928,-0.270288299,-1.070687472,-0.283808694,0.004066254,-0.020368113,0.1372277872654998,0.050731667,-0.021404593,0.9883914364194407,0.10679369484915317,0.028779916550898562,-0.277386748,-106.6770419,73.78755073547363,-18.82886957,-42.59727512,23.44778953552246,9.851499786376953,Campus
76,9.759173596946939,-0.473651113,-1.198444062,-0.004851197,-0.003407103,0.028767643,-55.75,45,0.27964311838150024,2.6165518760681152,6.802999973297119,1.4854844808578491,355.7726745605469,154.29998779296875,-86.9104595,40.42675,0.015612188491572454,-0.015188154,0.028402916,9.759173596946939,-0.473651113,-1.198444062,-0.144560953,0.015633155,-0.030026975,0.1545069399244577,0.054172976937108826,-0.032735368,0.9855410618689454,0.11747737091432497,0.048393812,-0.313807755,-108.5897581,74.74183502197266,-18.00292959,-44.50889324,24.401829643249513,10.676585779190063,Campus
77,9.815050685289995,-0.144394066,-0.99334373,0.03797928,-3.59E-04,0.013919016457664626,-49.11111111,45,0.27964311838150024,2.6165518760681152,6.802999973297119,1.4854844808578491,355.7726745605469,154.29998779296875,-86.9104595,40.42675,0.058442664463796375,-0.012139847,0.013564662715686866,9.815050685289995,-0.144394066,-0.99334373,-0.071708286,-0.093982662,-0.071548556,0.1504004865306095,0.045756128,-0.009571329,0.9869756860640443,0.09376668,0.005555067,-0.302475311,-109.6847078,71.84665267944337,-19.10873768,-45.60494133,21.505793704986573,9.571265830993653,Campus
78,9.835383836505482,0.060787562,-1.327377707,0.20604347996413708,-0.003719415,2.481578200016744E-4,-36.66666667,45,0.2724672853946686,2.6365582942962646,6.868000030517578,1.5122531652450562,352.2600402832031,154.29998779296875,-86.9104627,40.4267815,0.2265068630121487,-0.015506122,-9.40E-05,9.835383836505482,0.060787562,-1.327377707,-0.033708403,-0.078590039,-0.362178825,0.23527196450875357,0.048425624558988675,-0.004108139,0.9696071359973687,0.096108034,-0.014793518,-0.475310198,-111.5471599,70.94482849121094,-15.94844974,-47.46800308,20.604945564270018,12.732041788101196,Campus
79,10.064929364954384,0.171171029,-1.181772709,0.329003519,0.038258015,-0.052498763,-44.5,45,0.28819748759269714,2.646578073501587,6.979000091552734,1.4802647829055786,339.17950439453125,154.29998779296875,-86.9104714,40.4267941,0.3494669043456738,0.026479932,-0.052845699,10.064929364954384,0.171171029,-1.181772709,0.1680720986671818,0.1723887776431528,-0.368075321,0.37931578888476475,0.037606763,-0.015718205,0.922011863,0.082015788,1.9737919995977174E-5,-0.780654812,-111.3931958,65.57207084655762,-11.61744984,-47.3119651,15.23157766342163,17.063407669067384,Campus
80,9.99873178,0.1866053182957242,-1.271895583,0.1016378675958196,-0.008900281,0.045482916,-45.88888889,45,0.28819748759269714,2.646578073501587,6.979000091552734,1.4802647829055786,339.17950439453125,154.29998779296875,-86.9104714,40.4267941,0.12210125010460615,-0.02067985,0.045115221,9.99873178,0.1866053182957242,-1.271895583,0.1418615220819862,-0.196501716,-0.076733724,0.4901641040172392,0.061899303,-0.012058876,0.867980907,0.1206850974088155,-0.038645814,-1.025551155,-109.2512418,59.63298873901367,-6.254939871,-45.17013325,9.292983818,22.424575519561767,Campus
81,9.962634962338667,0.46654577222831833,-1.539401747,0.207462706,0.12251787115955382,-0.054850227,-45.75,45,0.28114330768585205,2.6666529178619385,7.019999980926514,1.475136160850525,309.28289794921875,154.29998779296875,-86.9104966,40.4268198,0.22792608887680527,0.1107294097479469,-0.05520606,9.962634962338667,0.46654577222831833,-1.539401747,0.15192248520341892,-0.14590836,-0.062248266,0.55389718,0.080530501,-0.01565563,0.8266272122420154,0.15197171458920228,-0.064291064,-1.175893065,-108.6245279,55.94980895996094,-3.244223948,-44.54476124,5.609193905591964,25.43675548553467,Campus
82,9.987987296095172,-0.68144918,-0.482920398,-0.041442726,-0.286233834,-0.052169618,-34.33333333,45,0.2802974581718445,2.6764864921569824,6.929999828338623,1.4360771179199219,297.65484619140625,154.29998779296875,-86.9105161,40.4268302,-0.020979342,-0.298004503,-0.052537312,9.987987296095172,-0.68144918,-0.482920398,0.17409323257150003,-0.081641977,0.252565599,0.6198983794277154,0.011318954036715756,-0.0474473,0.7802688294244045,0.077314449,0.060516629,-1.345623957,-107.5587357,59.50684070587158,-4.10298193,-43.34245106,9.177937800884246,24.38657952308655,Campus
83,9.632083980782518,0.37059712251173604,1.4727358702497864,0.082387282,-0.036594493,0.10097512810997375,-47.25,45,0.23588106036186218,2.686565637588501,6.968999862670898,1.3876841068267822,292.8683166503906,154.29998779296875,-86.9105398,40.4268331,0.10285066491675572,-0.048363682,0.10060150187363107,9.632083980782518,0.37059712251173604,1.4727358702497864,-0.125293204,-0.125476753,-0.090202196,0.5708428187277711,-0.051020106,0.065146873,0.8159550335800764,-0.158776269,-0.047228139,-1.22480435,-111.8554535,54.803496856689456,-14.69453375,-45.495019,4.644295913577079,10.80553981781006,Campus
84,9.775580716364592,0.1031643417709082,0.7751206242842757,0.032621593590682514,0.13966670301921952,-0.134105936,-45.33333333,45,0.27905482053756714,2.696601152420044,6.880000114440918,1.4325484037399292,288.8649902,154.29998779296875,-86.9105558,40.4268358,0.053084976254747465,0.12787852305560732,-0.134433384,9.775580716364592,0.1031643417709082,0.7751206242842757,-0.152933671,-0.096975103,0.1738679648305361,0.6109920115425036,-0.019073464,0.027363403,0.7898194692455806,-0.062494849,-0.02060009,-1.318092959,-110.5247998,53.17931114196777,-9.401197791,-44.16497509,3.019255926981568,16.099119663238525,Campus
85,9.901099372,-0.014020079,0.735688423,-0.13879873,-0.113841468,0.052094002,-39,45,0.4290906488895416,2.7066574096679688,6.806000232696533,1.520609974861145,281.77032470703125,154.29998779296875,-86.9105775,40.4268378,-0.118335349,-0.125603243,0.051721861481426955,9.901099372,-0.014020079,0.735688423,0.014196516240684732,0.072098349,-0.021854934,0.6100721440268951,-0.032901204,0.019913543854484496,0.7908392652724553,-0.076409183,0.008671805,-1.314240333,-109.7187459,54.92012908935547,-8.410069838,-43.35892124,4.7600739026069645,17.09012565612793,Campus
86,9.539774464172067,0.6579362027961941,2.7811307161865595,-0.048962668,0.012729940176444146,0.020498965,-39.55555556,45,0.4290906488895416,2.7066574096679688,6.806000232696533,1.520609974861145,281.77032470703125,154.29998779296875,-86.9105775,40.4268378,-0.028499288,9.310991634406801E-4,0.02013572,9.539774464172067,0.6579362027961941,2.7811307161865595,-0.00873393,-0.078583626,0.22498736682447415,0.5232524487000068,-0.091427035,0.099811483,0.8396123757640135,-0.261676032,-0.074241792,-1.125026064,-110.8966554,55.08214473724365,-18.71296954,-44.40946304,4.666255896091461,6.446601880192756,Campus
87,9.667857644649652,0.38067737759802883,0.6286364967863147,0.12664109071065643,0.11008446121552182,-0.072990317,-43.125,45,0.42917680740356445,2.726602792739868,6.811999797821045,1.5814086198806763,277.0047912597656,154.29998779296875,-86.910618,40.4268395,0.14710447454409112,0.098298964,-0.073341702,9.667857644649652,0.38067737759802883,0.6286364967863147,-0.178275664,0.006891471,0.016572510877859246,0.632718626,-0.012952884,0.034464846,0.7719542279984187,-0.062066365,-0.037520135,-1.374480252,-108.65576,52.266873092651366,-7.632685857,-42.31020935,1.7470399581640959,17.629121618270872,Campus
88,9.751780241438485,-0.194942451,0.7336818246008123,-0.016368333,0.13831390656623538,0.06708793,-58.33333333,45,0.42917680740356445,2.726602792739868,6.811999797821045,1.5814086198806763,277.0047912597656,154.29998779296875,-86.910618,40.4268395,0.004095047,0.12654027144325156,0.066726169,9.751780241438485,-0.194942451,0.7336818246008123,-0.167168691,-0.130937451,0.2819108369859677,0.6734628023453129,-0.019687076,0.013274561088233824,0.7378147024552799,-0.047373582,0.007262836,-1.47938063,-109.6527443,53.55568103790283,-6.164537872,-44.31759712,2.9149459382891654,18.793123626708983,Campus
89,9.918798664,0.27665849788638863,-0.347589431,-0.142914537,0.020759910241094897,0.033406821,-68.25,45,0.39819806814193726,2.74653697,6.7129998207092285,1.5429205894470215,282.3697204589844,154.29998779296875,-86.9106507,40.4268457,-0.122451153,0.008984791,0.033052470498872034,9.918798664,0.27665849788638863,-0.347589431,-0.009266571,-0.00451783,0.13436708013409548,0.6173083226657609,0.027549666928995437,-0.003623395,0.7854661004057208,0.04874572,-0.028579172,-1.331720701,-109.6171199,54.024038810729984,-2.66496794,-44.75618717,3.3241339313983915,22.114817543029787,Campus
90,9.865691995157778,-0.096883183,-0.230373066,-0.058190613,-0.001071948,-0.049459354,-68.77777778,45,0.42076340317726135,2.756593704223633,6.684999942779541,1.509247899055481,292.6608581542969,154.29998779296875,-86.9106659,40.4268497,-0.037727231,-0.012839654,-0.049809256,9.865691995157778,-0.096883183,-0.230373066,-0.064195369,-0.052439169,0.15213663431191907,0.632276691,0.013596501125558788,-0.013477801,0.7736970319331271,0.038485692391845676,0.00405704,-1.370320032,-109.4407082,54.068690872192384,-3.06805594,-44.5802631,3.369517931938171,21.71185161590576,Campus
91,10.006923680166596,-0.160292983,-0.62922524,-0.0475991,0.044584507,0.014231564826332033,-70,45,0.29813772439956665,2.756593704223633,6.642000198364258,1.3588473796844482,298.7994079589844,154.29998779296875,-86.9106785,40.4268554,-0.027135713,0.032809546,0.013873281512552729,10.006923680166596,-0.160292983,-0.62922524,0.1019753309396597,0.044891859,-0.22580453,0.6011569167558963,0.010586939792399509,-0.019673023,0.7979444890068128,0.041381685,0.019477578598105956,-1.291447335,-108.5698721,57.11344482421875,-4.420913892,-43.70967121,6.412563858032226,20.35911554336548,Campus
92,9.966820671,-0.039400263,-0.510173597,0.084652755,-0.067652816,-0.034644827,-70.33333333,45,0.31063973903656006,2.766547918319702,6.580999851226807,1.3239933252334595,307.25567626953125,154.29998779296875,-86.910695,40.4268693,0.10511613771030047,-0.079427935,-0.034994728,9.966820671,-0.039400263,-0.510173597,0.042014321,-0.047763728,-0.216343699,0.6100392353187487,0.012023426472261385,-0.008550166,0.7918201615509478,0.029577549904679826,-9.28E-04,-1.312839617,-108.5612099,55.89771495819092,-4.81948791,-43.70113129,5.197199916839599,19.961273670196533,Campus
93,10.191757609543291,-0.307495133,-0.051431169,0.084320644,0.019206106,-0.068898232,-70,45,0.27658358216285706,2.776503324508667,6.552000045776367,1.3846532106399536,305.1058654785156,154.29998779296875,-86.9107057,40.4268773,0.10478402710818116,0.007419124,-0.069249619,10.191757609543291,-0.307495133,-0.051431169,0.27018825290272536,-0.033562163,-0.17741798,0.6426034650756317,-0.013730156,-0.00645859,0.7656787037849426,-0.012629587,0.027567569,-1.396356122,-109.19256,56.05045875549317,-6.700239854,-44.33260319,5.3511639094352725,18.08015568733215,Campus
94,10.02236352975552,-0.316013642,-0.377407379,-0.038928168,0.041543542,0.077967536,-68.88888889,45,0.27658358216285706,2.776503324508667,6.552000045776367,1.3846532106399536,305.1058654785156,154.29998779296875,-86.9107057,40.4268773,-0.018464786,0.029765458,0.077590944,10.02236352975552,-0.316013642,-0.377407379,0.10097602733130594,-0.23235307,0.11897747999834783,0.6463404066354326,0.016108206965089144,-0.018355327,0.7619726142837006,0.049027278,0.007665593,-1.406759811,-109.3004081,55.165470886230466,-3.757477938,-44.44045109,4.465931891202927,21.02242973327637,Campus
95,9.686991118,-0.005084754,-0.664350946,-0.040458253,0.022866741,-0.018353587,-68.66666667,45,0.30159327387809753,2.7965826988220215,6.656000137329102,1.4400272369384766,287.1601867675781,154.29998779296875,-86.9107402,40.426886,-0.019994867,0.011084210396590598,-0.01872128,9.686991118,-0.005084754,-0.664350946,-0.188073973,-0.124849106,-0.025189581,0.6456742813286273,0.028076238276943274,-0.016171712,0.7622763942746282,0.064056989,-0.011126549,-1.405157533,-109.496218,51.641379051208496,-2.49001996,-44.63540722,0.9413519896566868,22.290131511688234,Campus
96,9.884062132789094,-0.254170616,-0.623234473,0.078283338,-4.79E-04,-0.055809495,-63.125,45,0.2958870828151703,2.806500196456909,6.603000164031982,1.3997727632522583,284.07550048828125,154.29998779296875,-86.9107655,40.4268885,0.09874672,-0.012258458,-0.056166813,9.884062132789094,-0.254170616,-0.623234473,-0.042361204,0.008153357,-0.008328331,0.6557948016425938,0.014927634856894214,-0.030507753,0.7535493437526295,0.062841227,0.026456761,-1.433295928,-107.31559,52.99289512634277,-2.794287933,-42.45575512,2.2932339595258235,21.985253524780273,Campus
97,9.604775586,-0.279434643,-0.557855818,-0.02667758,0.060965789,0.045145431,-64.44444444,45,0.2958870828151703,2.806500196456909,6.603000164031982,1.3997727632522583,284.07550048828125,154.29998779296875,-86.9107655,40.4268885,-0.006214196,0.049184952018549666,0.044779803207627714,9.604775586,-0.279434643,-0.557855818,-0.322733664,-0.056898876,0.080846112,0.676390831,0.016379374007346296,-0.029774335,0.7353260316527807,0.064664624,0.021788803591894414,-1.488092817,-106.5280801,51.61929702758789,-2.27871596,-41.66897709,0.919269982,22.50204563140869,Campus
98,9.651453064483347,0.28203073699135806,-0.891454214,-0.087309643,-0.039549396,-0.001485605,-65.875,45,0.28579799830913544,2.831593632698059,6.569000005722046,1.3324434757232666,268.89878845214844,154.29998779296875,-86.91080875,40.42688675,-0.066846262,-0.051328961,-0.00184292,9.651453064483347,0.28203073699135806,-0.891454214,-0.221198985,0.016574526730092985,-0.027644575,0.6557173503255381,0.041479765,-0.018175688,0.7528806583395282,0.087335089,-0.026800924,-1.431518709,-105.9848135,51.497540969848636,-1.674693966,-41.12485725,0.7977579799294472,23.10557954788208,Campus
99,9.953090987,-0.443856982,-0.765854246,-0.016475085,-0.015874616,-0.041018691,-62.77777778,45,0.28579799830913544,2.831593632698059,6.569000005722046,1.3324434757232666,268.89878845214844,154.29998779296875,-86.91080875,40.42688675,0.003988299,-0.027654182,-0.041376007,9.953090987,-0.443856982,-0.765854246,0.079809601,0.099404106,-0.047142401,0.6633747220039368,0.008809332,-0.044427202,0.7464807016178242,0.072673443,0.054693923,-1.454872615,-105.928084,55.883562812805174,-2.577615941,-41.06800526,5.1839018821716305,22.202535419464112,Campus
100,9.960299730300903,-0.318849371,-0.800399176,0.013948669,0.035633746,0.085714323,-71.125,45,0.31611937284469604,2.8566105365753174,6.991000175476074,1.5398608446121216,280.3618164,154.29998779296875,-86.9108434,40.4269003,0.034412049842112276,0.023858626,0.085348113,9.960299730300903,-0.318849371,-0.800399176,0.051728716,-0.091043624,-0.130045497,0.6480948155366101,0.018040736299686277,-0.030876737,0.7599851842065459,0.067342888,0.023696270582008457,-1.412801635,-106.3641121,55.65005497,-2.909699942,-41.50317921,4.9500279092788695,21.870573463439943,Campus
101,9.895579060304511,-0.02028963,-0.627035697,-0.090464699,-0.030537914,-0.059412307,-66.33333333,45,0.2589573860168457,2.866642713546753,6.9710001945495605,1.4168295860290527,285.6905212402344,154.29998779296875,-86.9108609,40.4269114,-0.070001315,-0.042314515,-0.05976073,9.895579060304511,-0.02028963,-0.627035697,-0.004883252,-0.008167257,0.089047643,0.6555206133323965,0.026219613,-0.024795147,0.7538509831845182,0.072362997,0.003194769,-1.431541382,-106.2977437,53.88117676,-1.678719963,-41.43803116,3.1804179406911133,23.101553497314452,Campus
102,10.204822327326802,0.04857953,-0.562818593,-0.106145089,-0.011318467,0.027946261,-68.66666667,45,0.2589573860168457,2.866642713546753,6.9710001945495605,1.4168295860290527,285.6905212402344,154.29998779296875,-86.9108609,40.4269114,-0.085681708,-0.023087655,0.027584498422672448,10.204822327326802,0.04857953,-0.562818593,0.27028103708063517,0.008411284,-0.04882307,0.6318745080707142,0.023767493934781985,-0.014107833,0.774206493,0.054963370547765525,-0.008112506,-1.368818726,-106.8528437,54.844976654052736,-2.696809926,-41.9914233,4.144827917814255,22.08334156036377,Campus
103,9.841653434975633,0.30772164257840046,-0.365282964,0.10254010953044948,0.04142161,-0.022135872,-68.75,45,0.46898335218429565,2.8865835666656494,7.125999927520752,0.7931087613105774,335.7697754,154.29998779296875,-86.9108708,40.4269196,0.12300349429894525,0.029637838362340026,-0.022495624,9.841653434975633,0.30772164257840046,-0.365282964,-0.025180363,-0.121381448,-0.098018552,0.6191966825952897,0.022700173,0.009353135,0.7838098779320717,0.024390609,-0.041635106,-1.336608817,-107.4053819,53.81676090240479,-3.781877916,-42.54603516,3.117343933433294,20.99802958,Campus
104,9.969588108433102,0.18579803993111677,-0.949178152,-0.01534828,0.086583149,0.090605552,-61.11111111,45,0.37345385551452637,2.8966455459594727,6.565000057220459,0.9077643752098083,331.7552185058594,154.29998779296875,-86.9108698,40.4269241,0.005115104,0.07479024,0.090223029,9.969588108433102,0.18579803993111677,-0.949178152,0.10097113396357564,-0.185922516,0.014996852110890508,0.6691762162643728,0.048317464140867725,-0.018645283,0.7404967818445373,0.097417339,-0.037483528,-1.46819731,-105.7655795,51.55036705,0.4039419898763299,-40.90562328,0.8510719813406468,25.18372760772705,Campus
105,9.722497171568639,1.0116848343061011,-1.028187758,-0.043435391,0.034042874,0.041364144807392096,-64.75,45,0.22301380336284637,2.906444549560547,5.985000133514404,1.203784704208374,329.9624938964844,154.29998779296875,-86.9108769,40.4269318,-0.022972008,0.022269237515272447,0.041011276887729764,9.722497171568639,1.0116848343061011,-1.028187758,-0.07168611,-0.058757455,0.2029609871142119,0.6634332925370596,0.082483919,-9.03E-04,0.7432006342897137,0.12509167990059528,-0.108049149,-1.450585878,-105.999698,48.12582706451416,2.1726979529857635,-41.19622738,-2.368751943,26.915029430389403,Campus
106,9.564230001889742,0.9667578683181021,-1.114019997,-0.043150725,-0.027126361,-0.0215635,-59.11111111,45,0.29561495780944824,3.631270170211792,5.876999855041504,1.4203758239746094,283.8413391113281,164.79998779296875,-86.9109135,40.4269378,-0.022687341,-0.038898517,-0.021911922,9.564230001889742,0.9667578683181021,-1.114019997,-0.190721466,-0.157082032,-0.086018359,0.6492803947439472,0.07707992,0.009596967,0.7557944585976092,0.10576240533908594,-0.114128635,-1.412937061,-107.0187638,49.46611919403076,1.9304059682041406,-42.33912323,-0.573277986,26.590997524261475,Campus
107,9.702309233471027,0.8001291107892701,-1.135037159,-0.008373945,0.036600426,-0.006098095,-52.375,45,0.29561495780944824,3.631270170211792,5.876999855041504,1.4203758239746094,283.8413391113281,164.79998779296875,-86.9109135,40.4269378,0.012089437533857173,0.024819376589097445,-0.006456891,9.702309233471027,0.8001291107892701,-1.135037159,-0.098124055,-0.024514633,0.12875330390282047,0.6700639597420553,0.075083031,-0.011915247,0.7375719819254088,0.1283511626488954,-0.082865018,-1.469464794,-107.2264079,50.03024696350098,3.872523916,-42.54615704,-0.010491988,28.533359317779542,Campus
108,9.672419238,0.7378692640516075,-0.780489963,-0.020199474,-0.036145256,-0.006058065,-56.11111111,45,0.32586337625980377,3.6463701725006104,6.003499984741211,1.3069769740104675,274.05003356933594,164.79998779296875,-86.9109367,40.4269382,2.639093662349923E-4,-0.047924823,-0.006421311,9.672419238,0.7378692640516075,-0.780489963,-0.189135093,0.002626678,-0.074446141,0.6808842038645327,0.050714699,0.003415247,0.7296694852773425,0.07024378,-0.073229915,-1.49872459,-109.3668983,49.396579055786134,2.857971943616867,-44.68664719,-0.643427983,27.51807548522949,Campus
109,9.785756039387971,0.6007959482721189,-0.66229498,-0.065983365,0.036017749187292405,-0.027590428,-60.25,45,0.32586337625980377,3.6463701725006104,6.003499984741211,1.3069769740104675,274.05003356933594,164.79998779296875,-86.9109367,40.4269382,-0.045519982,0.024250044,-0.027925505,9.785756039387971,0.6007959482721189,-0.66229498,-0.136630267,0.027986223,-0.04343096,0.6797735476956784,0.042623525,9.012537501476597E-4,0.7315470396893696,0.061575955,-0.058919525,-1.495576315,-111.149318,49.710363121032714,3.2066479420661924,-46.46943306,-0.32927799,27.86614137649536,Campus
110,10.071799944905402,0.3048032110238231,-1.056826134,0.035217694,-0.005327291,0.019799675,-61.11111111,45,0.2559530436992645,3.671367883682251,7.835999965667725,1.2543338537216187,272.4293212890625,164.79998779296875,-86.9109688,40.4269454,0.055681077,-0.017103722,0.019441388609545987,10.071799944905402,0.3048032110238231,-1.056826134,0.21096151150189912,-0.046448378,-0.151933924,0.6717354907439306,0.046368686,-0.017647705,0.7385556164842385,0.09284634,-0.036176144,-1.474545246,-111.7945754,50.27973690032959,4.531445906162262,-47.11469124,0.2397299910336733,29.190573444366454,Campus
111,9.549183079339926,0.9560952678557884,-0.543493074,0.002218029,-0.005245576,0.067707673,-64.875,45,0.18308678269386292,3.681253433227539,8.046999931,1.2657742500305176,266.6778869628906,164.79998779296875,-86.9109874,40.4269413,0.022681411215583386,-0.017014765,0.067319222,9.549183079339926,0.9560952678557884,-0.543493074,-0.28690252,-0.16586193,0.038291001,0.6875283069980954,0.060405425,0.021111185064689637,0.7225910986511452,0.059121815,-0.113567921,-1.517491794,-113.1334038,41.50452102661133,3.408557941913605,-48.45449509,-8.536217792,28.068417453765868,Campus
112,9.918482178623236,0.6744449373280395,-1.047530705,0.043162587,-0.02782765,-0.100660808,-70.22222222,45,0.18160155415534973,2.8511180877685547,7.896999835968018,1.2387804985046387,259.8713379,160.39999389648438,-86.9110171,40.4269318,0.063625969,-0.039598321,-0.101001815,9.918482178623236,0.6744449373280395,-1.047530705,0.074913381,0.13808766112310214,-0.307193213,0.6847220277323306,0.045869469570303426,-0.005868476,0.7270220315572128,0.075044281,-0.054328026,-1.508979213,-111.2377682,42.598739318847656,1.5962479657679796,-46.55837101,-7.441267881,26.256107540130614,Campus
113,9.995024374,0.076837789,-0.589520173,0.070371977,0.059074268,-0.088939062,-64.375,45,0.20508649945259094,2.861163854598999,7.671999931335449,1.2250313758850098,258.91876220703125,160.39999389648438,-86.9110284,40.42693,0.090835358,0.047296184,-0.089283036,9.995024374,0.076837789,-0.589520173,0.020049091,-0.102481327,-0.150538444,0.725736961,0.024048244778984634,-0.009069949,0.6869550393623056,0.046618435521541136,-0.022330749,-1.624985145,-110.0385083,44.16814735412598,-2.746341944,-45.35874496,-5.87088388,21.913151569366455,Campus
114,10.067923258809211,0.5245682870951093,-0.646410585,-0.050042031,0.024162567496408247,0.060748164,-56.33333333,45,0.18785178661346436,2.871154785,7.215000152587891,1.2468900680541992,257.04693603515625,160.39999389648438,-86.9110448,40.426929,-0.029578648,0.012377069320403111,0.060380473,10.067923258809211,0.5245682870951093,-0.646410585,0.25347823078192555,-0.059705744,0.061635837,0.7228516062486519,0.044803644,-0.005312686,0.6886437951939778,0.070127957,-0.057135994,-1.617173711,-110.0640057,44.575871276855466,-1.369815978,-45.38387737,-5.464379894,23.291019554138185,Campus
115,9.847530911269697,0.8002946325261326,-0.939095776,-0.003522751,-0.022588005,-0.003155056,-61.33333333,45,0.18785178661346436,2.871154785,7.215000152587891,1.2468900680541992,257.04693603515625,160.39999389648438,-86.9110448,40.426929,0.016940633594555762,-0.034367572,-0.003515336,9.847530911269697,0.8002946325261326,-0.939095776,0.072385844,-0.192164883,0.044576077,0.7178315936940388,0.069556839,-7.81E-04,0.6919560606039844,0.098893622,-0.098573043,-1.602279753,-110.1686819,40.38041301727295,1.9710319656133652,-45.48867504,-9.659837861,26.63174560546875,Campus
116,9.918894503880473,0.5403132895821506,-0.973219637,8.222991331981924E-5,0.04595451,-0.123140052,-59.375,45,0.23452956974506378,2.881124496459961,6.781000137329102,1.2364851236343384,262.18060302734375,160.39999389648438,-86.9110681,40.426932,0.020545613629600175,0.034183952919332884,-0.123485123,9.918894503880473,0.5403132895821506,-0.973219637,0.07962281,-0.057982748,-0.020512346,0.7291620356532243,0.05454236,-0.014595366,0.6812179936812475,0.096635125,-0.059539199,-1.63593785,-107.487244,39.94865531921387,-0.554367986,-42.80638325,-10.09110782,24.105979499816893,Campus
117,9.760381675460964,0.3447145610975409,-0.569756043,-0.104567561,-0.084801019,0.056005206,-60.66666667,45,0.23452956974506378,2.881124496459961,6.781000137329102,1.2364851236343384,262.18060302734375,160.39999389648438,-86.9110681,40.426932,-0.084104178,-0.096567241,0.055659749,9.760381675460964,0.3447145610975409,-0.569756043,-0.156648039,0.045688417,-0.092388074,0.721887356,0.027227973,-0.007034395,0.6904755599290422,0.048077362,-0.03018638,-1.614591021,-106.772324,45.26639118,-4.212537929,-42.09292706,-4.773615899,20.44646759033203,Campus
118,9.752602063336418,0.5451018414053234,-0.349674441,0.079338978,0.020009694,0.072724924,-66.375,45,0.19357548654079437,2.901103973388672,6.122000217437744,1.3109359741210938,271.9264221191406,160.39999389648438,-86.9111147,40.4269466,0.09980236,0.008237541,0.07234833,9.752602063336418,0.5451018414053234,-0.349674441,-0.153058686,-0.091886332,-0.009757626,0.7283419144963755,0.035060234,0.009506016,0.6834159099939957,0.034308893,-0.064212009,-1.633074647,-107.2763058,41.83111503601074,-4.352105901,-42.59690918,-8.208891836,20.308119659423827,Campus
119,9.569579381209154,0.9924576957139204,-0.027408175,0.006535472,0.028054495075337804,0.020144616123130635,-66.22222222,45,0.1890183836221695,2.911132335662842,5.631999969482422,1.3147799968719482,277.71368408203125,160.39999389648438,-86.9111401,40.4269543,0.026998855071865672,0.016267514620337962,0.019768025422608932,9.569579381209154,0.9924576957139204,-0.027408175,-0.249894679,-0.056867778,0.11136119602953345,0.7549629043606878,0.044101942,0.029341010285261114,0.6528933418607249,0.013889902,-0.10528903,-1.714562607,-104.420042,36.1553093,-1.431913985,-39.73966927,-13.88506372,23.226725540161134,Campus
120,9.801251274868122,0.558035854,-0.644682755,-0.12865748,0.017871729984373145,0.010633486937912344,-71.125,45,0.3517496585845947,2.921210289001465,6.585000038146973,1.3534351587295532,275.5028991699219,160.39999389648438,-86.9111717,40.4269639,-0.108194097,0.006090681,0.010267274784267817,9.801251274868122,0.558035854,-0.644682755,-0.104662872,-0.070898668,-0.065807975,0.7337626126206037,0.043164021,8.134321809477326E-4,0.6771220755808561,0.057985601747788273,-0.064302461,-1.649336666,-103.2762919,45.910063133239746,0.11943799786269665,-38.59628525,-4.130553912,24.779785537719725,Campus
121,9.831300943800546,0.8702353313384414,-0.544367149,0.021112779241272257,0.036609321,0.012967161617232758,-71.66666667,45,0.3340610861778259,2.9411253929138184,8.890000343322754,1.2572108507156372,282.5046691894531,160.39999389648438,-86.911212,40.4269776,0.041576162422555095,0.024831236138921773,0.012615775002293217,9.831300943800546,0.8702353313384414,-0.544367149,-0.024868442,0.018978427,-0.075008968,0.7258123900126485,0.047139049,0.012086607886532557,0.6855384400747355,0.047610130863777335,-0.085132774,-1.625750435,-107.3416978,48.27161716461182,-3.458333936,-42.66108109,-1.767413965,21.202257595062257,Campus
122,9.844252378037833,1.0440837627172797,-0.929181815,0.12118269948181339,0.026304609675067835,-0.026743659,-62.88888889,45,0.22248078882694244,2.9511849880218506,9.078000069,1.1675586700439453,279.9595031738281,160.39999389648438,-86.9112311,40.4269828,0.14164607996421041,0.014531116852035316,-0.027100474,9.844252378037833,1.0440837627172797,-0.929181815,0.026205998200636644,0.061321146,-0.100726182,0.7484147921204567,0.065244593,0.00214602,0.6586587022130306,0.084162697,-0.100350028,-1.693560605,-108.7604359,44.21011501312256,-2.927877946,-44.08067307,-5.830135882,21.731493606567383,Campus
123,10.01393376970754,0.5716406801371898,-1.138719322,-0.050053892,0.047011517,-0.017120032,-69.75,45,0.22248078882694244,2.9511849880218506,9.078000069,1.1675586700439453,279.9595031738281,160.39999389648438,-86.9112311,40.4269828,-0.029590509,0.035233433,-0.017487728,10.01393376970754,0.5716406801371898,-1.138719322,0.18545677592453447,-0.045016293,-0.104546078,0.7701601993690417,0.057450722505166696,-0.020289742,0.6340704490837542,0.10485808028685815,-0.06237331,-1.760847402,-108.9295279,43.14944725036621,-2.071437955,-44.24866711,-6.891169889,22.58829957962036,Campus
124,9.876924287925647,0.713630317,-0.934615032,-0.137695647,-0.051145114,0.026804629,-69.625,45,0.26837417483329773,2.961162805557251,9.607000350952148,1.173142910003662,270.4286804199219,160.39999389648438,-86.9112507,40.4269845,-0.117232265,-0.062917269,0.026445832571412607,9.876924287925647,0.713630317,-0.934615032,0.021315343,0.029805080549230853,0.013725047551312493,0.7514921583018257,0.057556334,-0.01330588,0.6566743173645538,0.095938719,-0.068970229,-1.701998807,-108.6913835,42.64936912536621,-3.078059938,-44.01223114,-7.390027847,21.58228755950928,Campus
125,9.885503828525543,0.9677328258896103,-0.957485682,0.015336419446665106,0.042775617,-0.021403377,-64.44444444,45,0.2807319760322571,2.9711740016937256,8.454000473022461,1.1845320463180542,270.1731262207031,160.39999389648438,-86.9112669,40.4269863,0.0357998,0.030999014922643748,-0.021757726,9.885503828525543,0.9677328258896103,-0.957485682,-0.005943474,0.062123932595391874,-0.068476238,0.7400484148738453,0.06430548,-0.001941092,0.6688861893218698,0.089805432,-0.092836507,-1.667413452,-108.4672698,42.01936122894287,-4.102493925,-43.78701904,-8.02235384,20.557731609344483,Campus
126,9.879685888012636,0.4811403043737671,-0.782792772,0.024220391,-0.064610441,-0.018916988,-65.55555556,45,0.22834809124469757,2.981219769,6.815000057220459,1.2306742668151855,272.5480957,160.39999389648438,-86.9112838,40.4269904,0.044683774,-0.076379631,-0.019278755,9.879685888012636,0.4811403043737671,-0.782792772,0.043809849,-0.048961555,0.038518799,0.7582284096375252,0.048269268,-0.015372623,0.6491327731354722,0.086568331,-0.052534456,-1.7231618,-108.4436017,43.19495319366455,-3.848611916,-43.76298504,-6.845297861,20.81173559188843,Campus
127,9.922460495846943,0.47927018264037313,-0.481387132,0.041573195,0.014896073600150717,-0.048463022,-66.875,45,0.22834809124469757,2.981219769,6.815000057220459,1.2306742668151855,272.5480957,160.39999389648438,-86.9112838,40.4269904,0.062036581762424374,0.003125403,-0.048812922,9.922460495846943,0.47927018264037313,-0.481387132,0.010780714090588023,-0.150375212,-0.035187267,0.7724607592647516,0.039793184,0.003423296,0.6330498786805903,0.045416346510623026,-0.065484795,-1.766924678,-110.3555856,41.16426319122314,-6.027287893,-45.70388298,-8.90526782,18.689789600372315,Campus
128,9.792588937629773,0.5855765550135119,-0.774519523,-0.067768805,0.093916298,0.029721535449005805,-67.44444444,45,0.23335179686546326,3.0011250972747803,4.458000183105469,1.207891821861267,273.3864746,160.39999389648438,-86.911311,40.4269989,-0.047305422,0.082135463,0.029355908755230933,9.792588937629773,0.5855765550135119,-0.774519523,-0.065786187,-0.049760383,-0.027340768,0.7826914323063997,0.046658338,-0.008716316,0.6200208234099241,0.072171161,-0.062089945,-1.799198226,-110.0876739,37.79584339141846,-5.494147882,-45.88785919,-12.72398972,20.125851573944093,Campus
129,9.853678536646575,0.41673736279328505,-0.977142819,-0.063872087,0.071480989,-8.60E-05,-70,45,0.2715679705142975,3.0111000537872314,4.399000168,1.209315538406372,274.9450684,160.39999389648438,-86.9113216,40.4270037,-0.043408703,0.059702906004849426,-4.43E-04,9.853678536646575,0.41673736279328505,-0.977142819,0.008367279,0.046401177,0.1431467304530653,0.7854040351886193,0.049563232,-0.032755471,0.6155728032288043,0.11334546416708567,-0.03741208,-1.809832597,-107.1285641,36.90597541809082,-3.371347916,-42.9287492,-13.61397972,22.248651599884035,Campus
130,9.921618382907608,0.2832242408902972,-0.723271295,-0.035203779,-0.078640654,-0.026761634,-65.88888889,45,0.2312696874141693,3.0211069583892822,4.368000030517578,1.2335323095321655,277.5212402,160.39999389648438,-86.9113342,40.4270087,-0.014740397,-0.090411325,-0.02711895,9.921618382907608,0.2832242408902972,-0.723271295,0.052416500535983485,-0.194750983,-0.012259304,0.767953364,0.041655646,-0.011913434,0.6381066707731451,0.071885398,-0.048376576,-1.753369835,-104.8305717,38.533577308654785,-4.549867904,-40.63002518,-11.98637776,21.070131607055664,Campus
131,9.828010762779458,0.26739792726047845,-0.419975224,-0.046863253,-0.052790842,0.018077818,-74.22222222,45,0.2312696874141693,3.0211069583892822,4.368000030517578,1.2335323095321655,277.5212402,160.39999389648438,-86.9113342,40.4270087,-0.02639987,-0.064565962,0.017716053330782546,9.828010762779458,0.26739792726047845,-0.419975224,-0.062047847,-0.14991416,-0.140621082,0.7664334988131106,0.025327787876413974,0.002946468,0.6409311219326501,0.028266669500809055,-0.042205005,-1.748195866,-103.5171201,41.550271072387694,-6.316061864,-39.31706112,-8.969805822,19.303937673568726,Campus
132,9.757723684494312,0.2892324336661169,-0.113618811,-0.05728917,0.06682402,0.017704189929080384,-74.625,45,0.230615035,2.9174911975860596,4.732999801635742,1.2214981317520142,285.15203857421875,161,-86.9113664,40.4270207,-0.036825787,0.055053350642251156,0.017336495290736404,9.757723684494312,0.2892324336661169,-0.113618811,-0.117570447,-0.095149482,-0.064410911,0.7700030387026592,0.016474577159385165,0.010723313418142408,0.6374058636646827,0.004671807,-0.038905136,-1.758492102,-103.0970741,43.06026523590088,-6.921303864,-38.89774712,-7.459811888,18.69869565963745,Campus
133,9.804050645,0.406207774,-0.425004795,0.061547309,0.024571776,-0.015410549,-76.22222222,45,0.2241853028535843,2.927549123764038,5.025000095367432,1.2338895797729492,284.4954528808594,161,-86.9113841,40.4270243,0.082010693,0.012804069140365401,-0.015756006,9.804050645,0.406207774,-0.425004795,-0.104481665,0.050662517,-0.093483905,0.788998022,0.024653589035366272,-0.00228374,0.6129694841440442,0.034420422052295466,-0.035577616,-1.819788345,-102.2771121,41.83123722076416,-5.258687901,-38.07729748,-8.688839812,20.361311588287354,Campus
134,9.748873437492593,0.40945725403364425,-0.594204065,-0.035784974,0.070453523,-0.003951232,-75.375,45,0.25874245166778564,2.9374501705169678,5.3420000076293945,1.220656394958496,283.3227539,161,-86.9114021,40.4270287,-0.015321591,0.058670988,-0.00429817,9.748873437492593,0.40945725403364425,-0.594204065,-0.090016282,-0.06195582,0.46761354977644765,0.8083741809557943,0.050513648,-0.029076157,0.5848429839587906,0.10676741690456289,-0.047615799,-1.886361421,-100.0331665,39.62962528,-2.71925794,-35.83371708,-10.89045173,22.90074155807495,Campus
135,9.756754634449782,0.412056261,-1.320536091,-0.108084723,0.036085508,0.069701196,-78.22222222,45,0.2660278379917145,2.9474902153015137,5.535999774932861,1.1969869136810303,280.1216125488281,161,-86.9114213,40.4270342,-0.087621342,0.024304673776406653,0.069319418,9.756754634449782,0.412056261,-1.320536091,-0.099848137,-0.017993425,-0.112601654,0.77201032,0.055205729,-0.032910553,0.6318690243821877,0.12122743698553397,-0.04365441,-1.767256129,-99.23613983,43.29474918365479,-2.290061944,-35.03656956,-7.225327847,23.329937496185302,Campus
136,9.826948013120484,0.5265051891000996,-1.401839793,6.760828043288976E-4,-0.018331346,-0.049090178,-77.375,45,0.26834553480148315,1.9038563966751099,5.835999965667725,1.2113345861434937,282.98284912109375,159,-86.9114437,40.4270393,0.021139466434319333,-0.030109433,-0.049441563,9.826948013120484,0.5265051891000996,-1.401839793,0.017165226,0.11989587784102819,-0.162245645,0.7842553911857235,0.054887457,-0.036285343,0.6159623178463538,0.1257839201072466,-0.041132561,-1.807068725,-99.06717018,43.40820919036865,-1.586243961,-34.86735519,-7.111867843,24.033755626678467,Campus
137,9.835311223002313,0.6012518673194843,-1.429461791,-0.025750475,0.091547027,0.048909293948808344,-72.33333333,45,0.22433368861675262,1.9137896299362183,5.9629998207092285,1.208716869354248,285.37823486328125,159,-86.9114556,40.4270436,-0.00528709,0.079760048,0.048531223,9.835311223002313,0.6012518673194843,-1.429461791,0.027774051555152078,-0.14126199,-0.216817345,0.7862798010261314,0.06754751,-0.025023716,0.6127061762856049,0.12299451087285014,-0.075090218,-1.813137416,-99.75988617,42.79967327,-1.579289963,-35.5588512,-7.720403862,24.040709590911867,Campus
138,9.781091075677137,0.6947641042643227,-1.366106166,0.013426779633731518,-0.008000319,-0.030693591,-75.25,45,0.23629049956798553,1.933802843093872,6.089000225067139,1.2128138542175293,285.5238342285156,159,-86.9114693,40.4270483,0.033890161,-0.019778404,-0.031033117,9.781091075677137,0.6947641042643227,-1.366106166,-7.88E-04,-0.130786254,0.058030236,0.7976961141651117,0.07681863,-0.032179171,0.5959193631283288,0.14447506386967537,-0.083765094,-1.852007329,-100.423932,41.472800979614256,-0.071126005,-36.2252153,-9.046909819,25.54887353897095,Campus
139,9.722593018152182,0.5403336221080961,-1.181636223,-0.014790805,-0.079497619,-0.044517717,-77.88888889,45,0.2604391276836395,1.943857192993164,6.129000186920166,1.2088407278060913,284.86773681640625,159,-86.9114877,40.4270516,0.005672577,-0.091265326,-0.044863171,9.722593018152182,0.5403336221080961,-1.181636223,-0.08989673,-8.14E-04,-0.08742126,0.7943011013049524,0.054960216983284765,-0.02816779,0.6035797133029086,0.11174220042031946,-0.053347684,-1.838801041,-102.041774,42.32399505615234,-1.691163975,-37.84220322,-8.196203856,23.928835582733154,Campus
140,9.824581289754331,0.24524109176296777,-1.084747234,-0.010402196,0.037509283105146535,-0.034883531,-77.33333333,45,0.2604391276836395,1.943857192993164,6.129000186920166,1.2088407278060913,284.86773681640625,159,-86.9114877,40.4270516,0.010061187547568268,0.025732682,-0.035231951,9.824581289754331,0.24524109176296777,-1.084747234,-0.03452839,-0.067445606,-0.107192459,0.7921152757209482,0.042713112,-0.028735948,0.607786342,0.097760465,-0.032497353,-1.831011545,-102.6955715,44.22536506652832,-3.655363941,-38.49514713,-6.294467902,21.964635581970214,Campus
141,9.981630640122496,0.35459076399119227,-1.079700233,0.067545609,0.042630092,-0.024864126,-77.875,45,0.2320956140756607,2.336552619934082,6.215000152587891,1.225854516029358,284.5083312988281,159.1999969482422,-86.9115336,40.4270566,0.088008994,0.030859535707769774,-0.025209197,9.981630640122496,0.35459076399119227,-1.079700233,0.13384999678685114,0.054692201,0.018496921715828087,0.7935244555656726,0.046202361,-0.03501974,0.6053547245951799,0.11190677563158366,-0.030753593,-1.836378647,-102.5967519,46.59558105,-3.894239938,-38.39693729,-3.924251943,21.725759563446044,Campus
142,10.021335810133554,0.35111187441835123,-1.154275571,-0.001375889,-0.032578025,-0.038247636,-74.55555556,45,0.22336900234222412,2.3466761112213135,6.151000022888184,1.251095175743103,283.9736328,159.1999969482422,-86.9115484,40.4270585,0.019087494,-0.044354628,-0.038588645,10.021335810133554,0.35111187441835123,-1.154275571,0.19733370623542268,-0.214679541,0.099424669,0.812049542,0.060082705,-0.034750023,0.5786131377359038,0.12695341803205823,-0.057107067,-1.899751427,-104.0781976,44.25354713439941,-0.198615996,-39.87691906,-6.266529896,25.421383533477783,Campus
143,10.017967251898016,0.45883825817371454,-1.058835636,-0.095778477,0.003186192,0.085113855,-76.5,45,0.24191421270370483,2.3567287921905518,6.058000087738037,1.2538892030715942,281.1761474609375,159.1999969482422,-86.9115651,40.4270599,-0.075315095,-0.008593377,0.084743198,10.017967251898016,0.45883825817371454,-1.058835636,0.16279432148609346,-0.192110229,-0.100868947,0.8052638092087311,0.055124032,-0.019283203,0.5890765004945033,0.09695705,-0.065756592,-1.874962714,-105.9434559,43.18287509918213,7.319999672472477E-4,-41.74290936,-7.337323885,25.620731506347656,Campus
144,9.373086049006535,0.8515630141617014,-1.070791007,0.034610724,0.034271201,-0.078938664,-70.33333333,45,0.24191421270370483,2.3567287921905518,6.058000087738037,1.2538892030715942,281.1761474609375,159.1999969482422,-86.9115651,40.4270599,0.055074107248869554,0.022494600007527517,-0.079284117,9.373086049006535,0.8515630141617014,-1.070791007,-0.436790522,0.11284960466391832,-0.033292355,0.7973959625345989,0.061629837,-0.018630187,0.5989954668341331,0.10390473916692641,-0.075787132,-1.849758837,-106.3232417,41.73571125030517,1.0194319750741123,-42.12354942,-8.784365835,26.639431591033937,Campus
145,9.771198713,0.490906152,-1.13182544,-0.027150085,0.038601988149485865,0.069961286,-78.625,45,0.2691802978515625,2.386650800704956,5.708000183105469,1.280997633934021,280.7510986328125,159.1999969482422,-86.9116017,40.4270613,-0.006686702,0.026823905387043375,0.069584693,9.771198713,0.490906152,-1.13182544,-0.03203055,-0.144013795,-0.033750088,0.7997797987993481,0.058947773,-0.025879558,0.5959696057930733,0.11277844659188418,-0.063144123,-1.857041776,-104.5265481,42.307525177001956,1.3465139692276715,-40.32636719,-8.21218586,26.96651346206665,Campus
146,9.542443150455512,0.83257451,-1.369966463,-0.02773128,0.003699185,0.008443628,-76.77777778,45,0.22748211026191711,2.5996508598327637,5.6529998779296875,1.2547427415847778,279.7640686035156,159.1999969482422,-86.911622,40.4270618,-0.007267897,-0.008071488,0.00807297,9.542443150455512,0.83257451,-1.369966463,-0.236023292,-0.056028924,-0.124003084,0.7866590433907741,0.07376261,-0.022291159,0.611815586,0.12667439234198877,-0.088581266,-1.813763701,-104.2250861,42.37743122,2.948129941225052,-40.02478313,-8.142767844,28.568129329681398,Campus
147,9.792516347,0.9228890441014495,-1.039411375,-0.027241438,-0.046894273,0.022125592714963623,-77,45,0.22730876505374908,2.609694242477417,5.671000003814697,1.2372621297836304,280.70611572265625,159.1999969482422,-86.9116375,40.4270621,-0.006778056,-0.058664833,0.021767307381826237,9.792516347,0.9228890441014495,-1.039411375,-0.056860309,0.012925556072821984,-0.024512601,0.7839558136004668,0.06831716,-0.011066296,0.6159799821101702,0.1030091096002322,-0.093265061,-1.804477613,-105.309544,40.89159297943115,3.146257928609848,-41.10948532,-9.628483791,28.76625736236572,Campus
148,9.766491524224142,1.0492091684792082,-0.803677691,-0.053244531,0.017324636,0.049816669,-74.75,45,0.22430042922496796,2.619694471359253,5.769000053405762,1.2517859935760498,279.9429931640625,159.1999969482422,-86.9116579,40.4270618,-0.032781149,0.005556931,0.04945639,9.766491524224142,1.0492091684792082,-0.803677691,-0.047754107,-0.112736935,0.026522163,0.7759168825103241,0.072159748,0.0045358,0.6259432510264868,0.084471946,-0.117480088,-1.778742787,-105.1697324,40.22425319671631,1.8808739483356476,-40.97016109,-10.29545777,27.500873489379885,Campus
149,9.706723148382983,1.1764004728711634,-0.754125354,-0.05781106,0.007715654,-0.022771853,-80.11111111,45,0.2416953295469284,2.6296093463897705,5.853000164031982,1.2936108112335205,277.8946533203125,159.1999969482422,-86.9116797,40.4270596,-0.037347675,-0.00405057,-0.023121755,9.706723148382983,1.1764004728711634,-0.754125354,-0.092928354,-0.012268417,0.074316521,0.7735786449561999,0.073185983,0.005588775,0.6290201429024483,0.08434273,-0.120297338,-1.771028942,-106.3126277,38.40047550201416,2.2369919455051424,-42.11195923,-12.11960179,27.856991424560547,Campus
150,9.931539870225466,0.7634858623988783,-1.113393028,-0.14743362,-0.007847608,-0.02474969,-78.875,45,0.5684031248092651,2.639600992202759,6.265999794006348,1.4471375942230225,282.7661437988281,159.1999969482422,-86.9117115,40.4270565,-0.126970238,-0.01962421,-0.025090698,9.931539870225466,0.7634858623988783,-1.113393028,0.10747275769131855,-0.026688154,-0.055556923,0.7419534117272757,0.065554882,-0.013278195,0.6663168668746948,0.10797774947239357,-0.079081702,-1.673655329,-105.8835539,42.474055213928224,1.4094659614562988,-42.18735516,-8.517063842,27.197825527191164,Campus
151,9.828524760829593,0.9353061673927654,-0.82902593,-0.049116865,-0.001475225,0.046695715340885145,-77.77777778,45,0.5661919713020325,2.649705171585083,7.504000186920166,1.682117223739624,283.3357238769531,159.1999969482422,-86.9117611,40.4270542,-0.02865348,-0.01324293,0.046336917,9.828524760829593,0.9353061673927654,-0.82902593,0.004100841,-0.024990692,-0.070992993,0.7203628305092599,0.061533243,0.005590236,0.6903841333481872,0.077688135,-0.096254314,-1.609427459,-105.54842,44.49522918701172,-2.312875955,-42.24835522,-6.865549855,23.606389598846434,Campus
152,9.808362983962864,1.0519127138829292,-0.683876845,-0.102740952,-0.044009172,0.025818675,-82.5,45,0.33772414922714233,2.649705171585083,8.298999786376953,1.4331059455871582,283.82916259765625,159.1999969482422,-86.9118004,40.427053,-0.082277567,-0.055776879,0.02546136,9.808362983962864,1.0519127138829292,-0.683876845,-0.040220265,0.013808525013692171,-0.092682354,0.7068284692116154,0.057928363,0.01668518,0.7043240793700357,0.058607741,-0.105467684,-1.571301033,-108.0029379,48.87002708435059,-2.946787935,-44.70336113,-2.490995951,22.973575553894044,Campus
153,10.005480405196403,1.0483205729317897,-0.555323608,0.035891724,0.059530921,-0.079198124,-78.88888889,45,0.2964792251586914,2.6596498489379883,9.130999565124512,1.3362572193145752,278.83795166015625,159.1999969482422,-86.9118361,40.4270535,0.056355108,0.047758767,-0.079533201,10.005480405196403,1.0483205729317897,-0.555323608,0.1282310948788541,0.019765700240737025,-0.007489135,0.7020819007771687,0.056840523,0.018093276997020544,0.7087887450329309,0.056392678369324906,-0.105723384,-1.558236395,-108.8979299,46.11624313354492,-1.428863959,-45.59884121,-5.243559873,24.49149959564209,Campus
154,9.892190173991676,0.9706874173948342,-0.844678011,0.039411394,0.030424893309827894,0.002218727,-78.5,45,0.32834091782569885,2.6696364879608154,9.927000045776367,1.1890608072280884,298.0874328613281,159.1999969482422,-86.911852,40.4270569,0.059874779,0.018654336,0.001879532,9.892190173991676,0.9706874173948342,-0.844678011,0.11051043638816246,-0.0484765,0.093186697,0.7235711841629102,0.06965904,0.001082494,0.6858691968596898,0.094732803,-0.102169872,-1.619327103,-105.8130381,45.13658309936523,0.28438199885189536,-42.51272926,-6.223951883,26.20401346206665,Campus
155,9.827386537,1.0165663098608984,-0.962721995,-0.088175506,0.011359981,0.031145795924900986,-79.88888889,45,0.2978218197822571,2.679764986038208,10.381999969482422,1.374491810798645,278.7699890136719,159.1999969482422,-86.9118769,40.4270557,-0.067712121,-4.09E-04,0.030786998092436495,9.827386537,1.0165663098608984,-0.962721995,-0.022855328,-0.054360641,-0.268345918,0.7179911061398034,0.06312088,0.012573223,0.6925840470397356,0.070426474,-0.108099569,-1.6028047,-106.6672816,45.44255920410156,-0.554977986,-43.36611916,-5.917243905,25.366117458343506,Campus
156,9.887738463948073,0.7054848415297863,-1.090041061,0.15902192576435728,0.071077713,-0.070930931,-78.75,45,0.29988858103752136,2.6896469593048096,9.895999908447266,1.3591070175170898,279.0073547363281,159.1999969482422,-86.9118974,40.4270558,0.179485311,0.059299628,-0.071266007,9.887738463948073,0.7054848415297863,-1.090041061,0.043743161321843714,-0.039423384,-0.011141908,0.741144075,0.064482183,-0.015031358,0.6667207716738136,0.10918795089553861,-0.075095063,-1.672219445,-105.7857103,45.83796112060547,0.7772619815729559,-42.48637707,-5.521475861,26.697503509521486,Campus
157,9.968775240274576,0.3801913333591074,-0.592079803,-0.101009228,-0.005135862,-0.024641458,-79.77777778,45,0.572040856,2.7096011638641357,9.616000175476074,1.4803706407546997,283.0279846191406,159.1999969482422,-86.9119094,40.427058,-0.080545843,-0.016908016,-0.024995808,9.968775240274576,0.3801913333591074,-0.592079803,0.096790073,-0.231260088,0.16530440689869297,0.7701577370606579,0.048927748919401354,-0.009269406,0.6353222947676205,0.076997855,-0.063492298,-1.759542131,-106.6699657,43.848385124206544,0.001708001,-43.37002327,-7.512271838,25.921705436706542,Campus
158,9.632621209598282,0.47120021100978826,-0.999113807,-0.012276251,-0.002610927,0.023499827314896093,-77.88888889,45,0.5653657913208008,2.7197272777557373,9.152000427246094,1.5227653980255127,281.1227722167969,159.1999969482422,-86.9119213,40.4270585,0.008187133,-0.01439346,0.023136581,9.632621209598282,0.47120021100978826,-0.999113807,-0.214846292,-0.113792226,-0.033922112,0.7558866363127255,0.053805274,-0.018159809,0.6514166379437863,0.09854288,-0.057207178,-1.715953865,-106.1143779,45.43523914337158,0.4212659937888384,-42.81455715,-5.92529593,26.340287494659425,Campus
159,9.691770942465773,0.49513133922682223,-0.667025447,-0.027363586,0.010353268359254287,0.038728012997223046,-81,45,0.5751972794532776,2.729637622833252,9.071000099182129,1.1822580099105835,277.14788818359375,159.1999969482422,-86.9119383,40.4270584,-0.006900202,-0.001429265,0.038378111,9.691770942465773,0.49513133922682223,-0.667025447,-0.184990758,-0.071056411,-0.096313564,0.767421611,0.039529218,-0.003437481,0.6392346539543671,0.056490628,-0.055817409,-1.750594523,-106.7104698,45.01324100494385,-1.178763963,-43.41052696,-6.34656189,24.74111152648926,Campus
160,9.872914013353366,0.5791066403961876,-0.859415356,-0.019652836,0.032959321124788124,-0.025912552,-82.55555556,45,0.32216590642929077,2.729637622833252,9.163000106811523,1.2927768230438232,273.0693664550781,159.1999969482422,-86.9119495,40.4270576,8.105479456179847E-4,0.021191701,-0.026254684,9.872914013353366,0.5791066403961876,-0.859415356,-0.029500952,0.070786076,0.11613764613866806,0.7728703371607341,0.051214478695048735,-0.021179545,0.6317505825024384,0.098087015,-0.052382897,-1.768424873,-105.5174326,44.903440971374515,-0.007198002,-42.21748909,-6.457093854,25.913043365478515,Campus
161,9.787963025,0.5272485960311103,-1.075228204,-0.128349092,0.042307104,0.041402695,-81.25,45,0.26448068022727966,2.74967885,8.855999946594238,1.3151861429214478,258.2253112792969,159.1999969482422,-86.9119684,40.4270492,-0.107885707,0.030524571,0.04104686,9.787963025,0.5272485960311103,-1.075228204,-0.078215571,0.023906893594172394,-0.110917953,0.7551040400579138,0.050966731,-0.019957636,0.6526818246517366,0.097458794,-0.050751907,-1.713338693,-105.4403279,47.09858695983887,-0.376857991,-42.14062935,-4.261947918,25.542407417297362,Campus
162,9.873497699070903,0.6074662345260363,-1.722727765,0.071842756,0.06798048,0.024039510167339472,-81.22222222,45,0.23405084013938904,2.7597100734710693,8.005999565124512,1.339758276939392,254.95838928222656,159.1999969482422,-86.9119825,40.4270414,0.092306139,0.056192016,0.023682194,9.873497699070903,0.6074662345260363,-1.722727765,0.071519171,0.021852576038212453,-0.246317509,0.7544670087619892,0.071031314,-0.036853886,0.6505756221928642,0.149552263,-0.059048915,-1.713608275,-104.616096,46.950722999572754,1.135941971037537,-41.31651917,-4.409567925,27.055817546844484,Campus
163,9.783256727915544,0.7196586633676466,-1.229755542,0.026806112564195995,-0.057437434,-0.091901377,-81.5,45,0.23405084013938904,2.7597100734710693,8.005999565124512,1.339758276939392,254.95838928222656,159.1999969482422,-86.9119825,40.4270414,0.047269496,-0.069203658,-0.092236453,9.783256727915544,0.7196586633676466,-1.229755542,-0.040932021,0.030848509478337557,-0.068153837,0.7736099391307646,0.063155854,-0.023485244,0.6294553748612265,0.11674319142566143,-0.06810801,-1.771231408,-105.5584241,45.14561130523682,0.845337986,-42.25860302,-6.213703895,26.764847450256347,Campus
164,10.100699656218001,0.1231374395559135,-0.794225459,0.038584195,0.005699266,-0.112945956,-79.33333333,45,0.26776161789894104,2.769679069519043,6.769000053405762,1.2642698287963867,249.71397399902344,159.1999969482422,-86.9120147,40.427031,0.059047581,-0.006078819,-0.11331365,10.100699656218001,0.1231374395559135,-0.794225459,0.1181239804017891,-0.212058092,0.041027705356912705,0.7744581699371338,0.043055038,-0.021878597,0.6299659303091105,0.088734851,-0.038876398,-1.774096681,-106.5280798,46.72148509979248,-0.072102005,-43.22789326,-4.637585905,25.847773532867432,Campus
165,9.829968054317733,0.13287425082791776,-0.818969684,-0.038477447,-0.003405622,0.035568509137854705,-79.75,45,0.2643639147281647,2.7896690368652344,5.317999839782715,1.3149199485778809,255.38243103027344,159.1999969482422,-86.9120411,40.4270307,-0.018014063,-0.015176292,0.035199335,9.829968054317733,0.13287425082791776,-0.818969684,0.019775293,-0.135707678,0.039470981,0.7790272768261364,0.035568612,-0.023855692,0.6245609602881866,0.082592662,-0.025309628,-1.788781639,-106.5782219,47.36186294555664,0.4991019840352237,-43.27901119,-3.997573929,26.41983154296875,Campus
166,9.785047452426651,-0.01508582,-0.727862387,0.023353159,-0.005455042,-0.019447262,-78.55555556,45,0.21872638165950775,2.7997677326202393,4.9720001220703125,1.2585145235061646,257.61260986328125,159.1999969482422,-86.912063,40.42703,0.043816544652844854,-0.017221193,-0.0197938,9.785047452426651,-0.01508582,-0.727862387,-0.147441011,-0.029356827,-0.065572209,0.7878388550419074,0.020849618,-0.026392024,0.6145356303224196,0.067447876,-2.78E-04,-1.816597341,-107.4691878,47.79642700195313,0.6658759904466569,-44.16936722,-3.563497934,26.585751514434815,Campus
167,9.737231662,0.15293156775166689,-0.872244841,-0.004293722,0.059999434,0.049463801085948944,-78.88888889,45,0.23541893064975739,2.8096392154693604,4.835999965667725,1.2577298879623413,259.77886962890625,159.1999969482422,-86.9120804,40.4270299,0.016169659110708435,0.04822135,0.049100556,9.737231662,0.15293156775166689,-0.872244841,-0.169791944,0.005041633,-0.105016288,0.7879364733557099,0.029620886961160935,-0.025747158,0.6138670913224081,0.077300086,-0.014897185,-1.817141904,-107.2215278,46.245197219848635,0.891087968,-43.92134132,-5.115093901,26.811817436218263,Campus
168,9.635321783787996,0.3608515871874084,-1.451267267,-0.00736575,0.033537294,-0.008557791,-78,45,0.5461370944976807,2.819586992263794,4.975999832,1.5335279703140259,271.6300048828125,159.1999969482422,-86.9121054,40.4270322,0.013097631433092564,0.021759211,-0.008924004,9.635321783787996,0.3608515871874084,-1.451267267,-0.18129483,-0.005777273,-0.115317274,0.7953185786321325,0.055489214516959144,-0.042444834,0.6015244612416017,0.1353378181607978,-0.037049427,-1.843803574,-105.5347556,43.44651725769043,2.5804219496250154,-42.23456921,-7.913163824,28.500297508239747,Campus
169,9.714267488,0.7761603436576059,-1.352114476,-0.004566528,0.002716195,0.058583512954251134,-75.55555556,45,0.5348570346832275,2.829702138900757,5.795000076293945,1.4246246814727783,278.2818908691406,159.1999969482422,-86.912139,40.4270402,0.015896856,-0.009067819,0.058233612,9.714267488,0.7761603436576059,-1.352114476,-0.084393543,-0.102229908,-0.05329043,0.7889058971867978,0.075224787,-0.025125744,0.6085814185512876,0.13285407735016738,-0.087980118,-1.8212448,-105.5463458,42.53956901550293,2.0305679605901243,-42.24615902,-8.821331835,27.950931491851808,Campus
170,9.783499676,1.0477717379684497,-0.979701151,-0.054572975,-0.093905905,0.036047401496670343,-76.875,45,0.5238393545150757,2.8396925926208496,6.6539998054504395,1.4625316858291626,277.7668762207031,159.1999969482422,-86.9121635,40.427043,-0.034109593,-0.105676576,0.035697499210991475,9.783499676,1.0477717379684497,-0.979701151,-0.018223545,-0.024331317,-0.087610499,0.7840026489739279,0.071014035,-0.002171443,0.6160306224545229,0.091789295,-0.108765699,-1.804598987,-106.8891999,42.733915138244626,1.0621319734491408,-43.58840305,-8.626009817,26.982983570098877,Campus
171,9.956816719573679,1.356222254052324,-1.172950622,0.1712863170496613,0.14312358852984491,0.08417238,-65.44444444,45,0.4903102219104767,2.849663496017456,7.291999816894531,1.5552695989608765,276.4990539550781,159.1999969482422,-86.9121835,40.427047,0.19174969670457712,0.13134402176817356,0.083794304,9.956816719573679,1.356222254052324,-1.172950622,0.22136614623579007,-0.058413616,-0.112079605,0.8037828641030395,0.089319479,-0.002407895,0.5862675986243683,0.10902687147693726,-0.142317088,-1.873400755,-107.0978195,38.99607929229737,1.810601977556944,-43.86241516,-12.32480576,27.737553424835205,Campus
172,9.289265625685164,1.4898253962469912,-0.745762082,-0.280155698,-0.002111535,-0.064876089,-60,45,0.3853657841682434,2.849663496017456,8.571000099182129,1.4000800848007202,272.9272155761719,159.1999969482422,-86.9122052,40.4270464,-0.259692315,-0.013896774,-0.065231439,9.289265625685164,1.4898253962469912,-0.745762082,-0.397300711,-0.281035356,0.25909324190937555,0.8113025232003286,0.10285164788365364,0.010953079906287782,0.5733076758109606,0.10151373082771897,-0.180697602,-1.902172575,-106.8873701,34.26174734,2.2140559554100037,-44.66737122,-16.43864555,28.254467430114747,Campus
173,10.022317353961537,0.6156581712262795,-0.729476954,-0.002609444,-0.0930608,-0.006548815,-52.33333333,45,0.3114893436431885,2.8597300052642822,8.930999755859375,1.3344823122024536,265.3710021972656,159.1999969482422,-86.9122245,40.4270498,0.017853936777242178,-0.104834437,-0.006907617,10.022317353961537,0.6156581712262795,-0.729476954,0.20190601441466693,-0.030275883,-0.168306437,0.7663113561648767,0.043665336,-0.001491137,0.6390140062396966,0.057249321,-0.065575708,-1.748645434,-108.3977305,45.28042125701904,6.100023165345192E-4,-46.27459911,-5.127659901,26.040533542633057,Campus
174,10.09098321,1.1771351588727201,-0.484337502,-0.055438837,-0.030024921,0.070735227,-67.66666667,45,0.3114893436431885,2.8597300052642822,8.930999755859375,1.3344823122024536,265.3710021972656,159.1999969482422,-86.9122245,40.4270498,-0.034975454,-0.041804488,0.070355667,10.09098321,1.1771351588727201,-0.484337502,0.2618477784314202,0.095106912,-0.009366491,0.7803531555296148,0.057786317,0.015214915179791047,0.6215415452290507,0.048346878,-0.109535503,-1.793436439,-108.671254,41.700941200256345,0.459085982,-46.57154716,-8.638575816,26.498643550872803,Campus
175,9.731818789417304,1.621128628627189,-0.733882186,-0.014162167,0.030620944184404843,-0.013078359,-76.125,45,0.25790780782699585,1.4515810012817383,7.2779998779296875,1.2885979413986206,271.0371398925781,159,-86.9122557,40.427052,0.006301215,0.018841375162806904,-0.013443086,9.731818789417304,1.621128628627189,-0.733882186,0.002760258,-0.09570777,-0.072510797,0.76738875,0.088442244,0.029852751,0.633380787,0.067910001,-0.174300231,-1.755470872,-108.2617,39.39855716705322,1.3160139668360353,-46.16211517,-10.94181378,27.35557144165039,Campus
176,9.786526670822731,1.5231610405473754,-0.379541353,-0.01439939,0.034512871,-0.01267656,-71.66666667,45,0.2287660390138626,1.4716767072677612,6.6479997634887695,1.336586594581604,270.7245178222656,159,-86.9122689,40.4270514,0.006063992,0.022731819,-0.013041295,9.786526670822731,1.5231610405473754,-0.379541353,0.030397104985505633,-0.038653103,0.039854661787597875,0.7709621034779595,0.074953741,0.033698633,0.6308939601611165,0.043633601763873424,-0.158615524,-1.76628586,-108.9340423,40.74019100189209,1.052127978205681,-46.83433506,-9.599203782,27.092417392730713,Campus
177,9.908089101,1.125718512870733,-0.707206866,-0.035500307,0.029553442036063925,-0.066313994,-73.125,45,0.2380642294883728,1.4816021919250488,6.308000087738037,1.347994327545166,269.5659484863281,159,-86.9122866,40.4270506,-0.015036924,0.017785738,-0.06667576,9.908089101,1.125718512870733,-0.707206866,0.068164307,-0.166631427,-0.111855549,0.7671249960232707,0.069872711,0.01923988,0.6370026087297976,0.060108144,-0.132029544,-1.751577808,-108.6292855,40.62892715454102,1.8113339646346867,-46.52933517,-9.710589781,27.850769500732422,Campus
178,9.723978158339714,1.4971897092023956,-0.805820779,-0.039402614,0.016572939,0.078404913,-63.77777778,45,0.20660780370235443,1.4916229248046875,5.764999866485596,1.3412361145019531,267.27264404296875,159,-86.9123048,40.4270471,-0.018939229,0.00478596,0.078029805,9.723978158339714,1.4971897092023956,-0.805820779,-0.046116685,-0.04744778,0.071986399,0.7687615063583967,0.087713833,0.015458834584315254,0.6325847500736274,0.088314,-0.155126501,-1.75786499,-107.2678876,39.13613544464111,0.8665659799985588,-45.16830334,-11.20484577,26.90661148071289,Campus
179,9.475714192807096,1.9381369750548914,-1.808729989,0.047716567651010476,0.1854097633443486,-0.054234721,-44.375,45,0.20338352024555206,1.5017082691192627,5.574999809265137,1.3110694885253906,265.3913574,159,-86.9123238,40.4270441,0.068179954,0.17362158480458534,-0.054600347,9.475714192807096,1.9381369750548914,-1.808729989,-0.077076192,-0.064851337,-0.085637694,0.780113511,0.13285765374222627,-0.005986893,0.6089858676378543,0.17809084315712637,-0.202346007,-1.797547878,-104.906578,36.11273144,3.866789926737547,-42.80613914,-14.22763978,29.90634744644165,Campus
180,9.371553777491005,1.649772805299664,-2.18024765,-0.085186505,-0.165378001,-0.036825788,-42.33333333,45,0.22614610195159912,1.5115981101989746,5.817999839782715,1.3296304941177368,262.85736083984375,159,-86.9123436,40.4270416,-0.064723122,-0.177151636,-0.037177171,9.371553777491005,1.649772805299664,-2.18024765,-0.166935055,-0.078382958,-0.070198922,0.7710852264200599,0.13544688482307693,-0.028616028,0.6205579354925063,0.21764203262271234,-0.174871173,-1.767144667,-103.7652682,38.784043350219726,5.826353908777237,-41.66568325,-11.55571773,31.865911235809325,Campus
181,9.60936376,1.202648926369204,-0.558840244,0.001992666,0.03050678,-0.01309615,-44.625,45,0.3958612382411957,1.521569848060608,6.066999912261963,1.4411110877990723,263.7273254394531,159,-86.9123688,40.427053,0.022456050407394623,0.018734626327324838,-0.01345495,9.60936376,1.202648926369204,-0.558840244,-0.212249603,0.064248634,0.068114585,0.7924900303766566,0.064990323,0.009996997,0.6054582526382891,0.063738181,-0.115149539,-1.833134583,-109.0481119,42.42818336486816,1.6088139752671122,-46.94840519,-7.911333838,27.648859519958496,Campus
182,9.884951642,0.6146908231984036,-0.751593645,-0.019262447,-0.011831459,-0.019717614,-45.77777778,45,0.4146559536457062,1.5315848588943481,6.296000003814697,1.4326666593551636,266.8191223144531,159,-86.9123944,40.4270639,0.001200938,-0.023609542,-0.02007345,9.884951642,0.6146908231984036,-0.751593645,0.042049195002583625,0.061905712901967246,-0.066233989,0.7943576389146083,0.042350761284961284,-0.010327276,0.6048914350352241,0.068459493,-0.054217308,-1.837660857,-109.0451839,42.30972114562988,2.676923953238875,-46.945355,-8.030771809,28.717335472106935,Campus
183,9.802697399287547,0.36007334610212194,-1.496205289,0.061511725,0.13362876883735067,0.1798263169571902,-63.44444444,45,0.43442532420158386,1.5417534112930298,6.559000015258789,1.4630165100097656,268.80218505859375,159,-86.9124148,40.4270656,0.081975111,0.12183141025705534,0.1794423143225677,9.802697399287547,0.36007334610212194,-1.496205289,0.036917478,-0.242513103,-0.055294457,0.8083171439402311,0.06648831,-0.041815852,0.5806642348326526,0.14605320415016518,-0.060063393,-1.890090925,-106.0355661,41.091063270568846,3.122223955411464,-44.11837132,-8.882819818,29.01611343383789,Campus
184,9.707759875695682,1.5591765937521982,-1.104412516,-0.059329279,-0.077571672,-0.107970217,-66.125,45,0.3025418817996979,1.5417534112930298,6.763000011444092,1.2953903675079346,267.4661560058594,159,-86.9124343,40.427062,-0.038865897,-0.089343825,-0.10833198,9.707759875695682,1.5591765937521982,-1.104412516,-0.031835996,0.14109955424243964,-0.004679035,0.7972218510016654,0.091769246,-0.002088749,0.5953779174286185,0.11462719271917945,-0.144262027,-1.849401093,-106.6026218,37.87526508331299,2.7241379487514497,-45.02043919,-11.62171979,28.524575424194335,Campus
185,9.793076746672103,0.9710823438905668,-0.821612246,-0.039023743,-0.001681297,-0.01686291,-64.66666667,45,0.3025418817996979,1.5417534112930298,6.763000011444092,1.2953903675079346,267.4661560058594,159,-86.9124343,40.427062,-0.01856036,-0.013462136,-0.017232941,9.793076746672103,0.9710823438905668,-0.821612246,-0.045897566,0.008792381,-0.161743236,0.7792728485969397,0.05951413,0.00525968,0.6227678576341042,0.066973363,-0.099048883,-1.789506548,-108.4078557,42.664375190734866,0.7177259947918355,-47.8211932,-6.63021188,26.46887538909912,Campus
186,9.933399566168925,0.7965892462638541,-0.722179428,0.092623422,-0.028714268,-0.09894836,-60.375,45,0.41403520107269287,1.5715686082839966,6.947000026702881,1.5860949754714966,271.2653809,159,-86.9124745,40.4270703,0.1130868058280965,-0.040499766,-0.099305674,9.933399566168925,0.7965892462638541,-0.722179428,0.094112688,-0.163873929,-0.09549726,0.8021714889887467,0.057994975,0.003454082,0.593701977,0.063625171,-0.097120533,-1.86419363,-108.4107836,40.52303139,0.7643299890123307,-48.05018692,-8.736175804,26.504377422332762,Campus
187,9.920947598022165,1.1736649922954225,-0.848075589,-0.052153309,0.04086746,0.063778679,-58,45,0.412647009,1.5815856456756592,6.8520002365112305,1.4908279180526733,270.7172546386719,159,-86.9124981,40.4270736,-0.031689926,0.029077513475712496,0.063416915,9.920947598022165,1.1736649922954225,-0.848075589,0.11584064335498995,-0.004899434,-0.191498187,0.7975678455482409,0.067717032,0.009696514,0.5981908133886393,0.067047277,-0.119391699,-1.850056718,-108.4322556,39.75931133270264,0.7728699854202569,-48.07178097,-9.50074985,26.512429485321046,Campus
188,9.327423989772797,1.2975195892996942,-0.961402778,0.031064251130356373,0.062607397,0.020009696501695994,-65.75,45,0.4522594213485718,1.591705083847046,6.822999954223633,1.4076436758041382,266.78839111328125,159,-86.9125164,40.4270726,0.051527635388763496,0.050830796,0.019637551,9.327423989772797,1.2975195892996942,-0.961402778,-0.345419666,-0.145589256,0.37597661458172843,0.8332568407058716,0.097773548,-0.015517994,0.5408257784195316,0.13661858461146215,-0.146460071,-1.978770768,-106.297988,34.30090925216675,3.8853339099884034,-46.01778912,-14.78298374,29.79191137313843,Campus
189,9.922245636727046,1.2441254815502654,-0.375919987,-0.075365504,-0.191233741,-0.081969179,-53.66666667,45,0.48613351583480835,1.6016643047332764,6.763000011444092,1.5781587362289429,262.8398132324219,159,-86.9125341,40.4270695,-0.054902122,-0.203008859,-0.082320565,9.922245636727046,1.2441254815502654,-0.375919987,0.12306496703508989,-0.003467118,-0.215031542,0.7900476617720521,0.054896269,0.032226145673668674,0.6082315340782832,0.016416072619409815,-0.12690839,-1.828408121,-109.3251738,39.28765922546387,-0.983197992,-49.00520329,-9.297497847,24.844567470550537,Campus
190,9.808017392760341,0.2393664791456704,-0.209679798,0.03134892,0.10148515555447021,-0.057060846,-42.55555556,45,0.4335235357284546,1.611652135848999,6.809000015258789,1.5560705661773682,265.5412902832031,159,-86.9125553,40.4270683,0.051812301,0.089699658,-0.057424089,9.808017392760341,0.2393664791456704,-0.209679798,-0.084822034,-0.023763352,-0.110054894,0.7916254655828754,0.013930161956205198,0.003608849,0.6099036839401838,0.011379483054184075,-0.026285828,-1.828806119,-109.746684,45.071801071166995,-2.195755942,-49.38633106,-3.347923934,23.424243507385253,Campus
191,9.809454843835923,0.11385364274639022,-0.430127297,-0.04291202,-0.059685356,0.015780710946553603,-36.75,45,0.43609321117401123,1.6216729879379272,6.829999923706055,1.5328515768051147,268.0769043,159,-86.9125729,40.4270676,-0.022448636,-0.07145738,0.015412146968838688,9.809454843835923,0.11385364274639022,-0.430127297,-0.135772632,0.087385859,-0.185981271,0.7889861974578637,0.009027155,-0.008516641,0.6135004575435932,0.024794114529728316,-0.003798719,-1.819428865,-109.2097617,46.88533100128174,-2.255901968,-48.8487989,-1.535125969,23.36409761428833,Campus
192,9.856434308209465,0.1238518060350031,0.062254045488656436,0.018811723253535993,0.013666966604520974,0.084507455,-44.88888889,45,0.4523245394229889,1.6317027807235718,7.070000171661377,1.472646713256836,270.2749938964844,159,-86.9125931,40.4270693,0.039275106,0.001891847,0.084150142,9.856434308209465,0.1238518060350031,0.062254045488656436,-0.081122741,0.033566681,0.043590395666152526,0.7865415383311152,0.003226065,0.003576633,0.6168396906945312,-0.001883466,-0.009126777,-1.811618297,-110.4833196,47.52644107818603,-3.211893927,-50.12235699,-0.892185971,22.408105545043945,Campus
193,10.106379712669595,0.0641532,0.18020800543803206,-0.062579227,-0.023941654,-0.081355366,-40.375,45,0.47575169801712036,1.6416292190551758,7.343999862670898,1.3592671155929565,270.8294982910156,159,-86.9126098,40.4270699,-0.042115842,-0.035719736,-0.081703786,10.106379712669595,0.0641532,0.18020800543803206,0.1808692089562277,0.054253114,-0.057345486,0.7807828772415235,-0.006926016,0.009808418,0.6238711638358033,-0.023947514,-0.001022699,-1.793302998,-110.2806779,47.03612305,-3.696599932,-49.9208131,-1.383479969,21.92339954376221,Campus
194,9.840517598849077,0.5925744780196021,0.089308088,0.021065335295805076,-0.003110576,0.12213683505406947,-43.77777778,45,0.5669453740119934,1.651727318763733,7.714000225067139,1.0104838609695435,268.2422790527344,159,-86.9126238,40.4270683,0.041528717551416565,-0.014891624,0.12174986714262118,9.840517598849077,0.5925744780196021,0.089308088,-0.090054132,-0.001097614,-0.014735466,0.7870766109633214,0.019485059749500065,0.021963113991236224,0.6146927626387587,-0.010680008,-0.057050745,-1.815709866,-109.0063881,43.53862705230713,-3.128079943,-48.64603519,-4.881097891,22.49191951751709,Campus
195,10.117330379856442,0.35624598981179656,0.24157054648164986,-0.068343726,-0.003589469,-0.086624663,-43.125,45,0.4385169744491577,1.6617109775543213,8.059000015258789,1.3051223754882812,266.7849426269531,159,-86.9126387,40.4270677,-0.047880344,-0.01536607,-0.086970118,10.117330379856442,0.35624598981179656,0.24157054648164986,0.16615865300002608,0.047736741,-0.014144205,0.7941981270475295,0.007075885,0.020424967,0.606664119,-0.023840708,-0.035886161,-1.837340426,-109.0226143,44.788273124694825,-3.278993932,-48.66287102,-3.63169592,22.34100553512573,Campus
196,9.960533725405202,-0.204182693,0.3443312394315178,-0.221102986,0.00713001,-0.059888237,-39.66666667,45,0.5509247779846191,1.6716334819793701,8.354000091552734,1.3645460605621338,265.7693786621094,159,-86.9126624,40.4270682,-0.200639602,-0.004655486,-0.060223313,9.960533725405202,-0.204182693,0.3443312394315178,0.079587094,-0.176095864,0.091085345,0.7518546436596842,-0.009164206,0.007835474,0.6581881561325592,-0.024184003,0.003829194,-1.703302939,-109.9049182,51.32137306213379,-3.098677936,-49.54456509,2.9020139396190645,22.52132158279419,Campus
197,9.918281801,-0.726384286,0.1755704578844089,-0.03471257,0.072448541,-0.045007403,-39.25,45,0.6537342071533203,1.6815670728683472,8.829000473022461,1.209442377090454,267.0677490234375,159,-86.9126836,40.4270672,-0.014249185,0.060650084,-0.045355409,9.918281801,-0.726384286,0.1755704578844089,0.017366001239189736,-0.014235015,0.062782029,0.7226555857520837,-0.030799779,-0.019153568,0.6891217094201308,-0.014219571,0.071359535,-1.61783799,-109.8650237,57.78383499145508,-3.548857915,-50.28327503,9.461099796295166,22.654545574188234,Campus
198,9.817635106,-0.539294022,0.32175624182049944,-0.063611143,-0.031236237,0.018138605156388966,-42.88888889,45,0.31853222846984863,1.6916091442108154,9.156999588012695,1.2448029518127441,265.1343994140625,159,-86.9127078,40.4270657,-0.04314776,-0.043026183,0.017775359798620625,9.817635106,-0.539294022,0.32175624182049944,-0.068275766,0.22334876396123646,-0.072897888,0.693686482,-0.040732061,-0.0138701,0.7180636444138092,-0.039801475,0.076808972,-1.535040443,-111.2154417,59.528191108703616,-4.650029904,-51.81486309,11.22802577495575,21.690013656616213,Campus
199,9.803864803129029,-0.779058328,0.1123639316189564,-0.005100279,0.10627556250439686,-0.046256854,-48.25,45,0.25936293601989746,1.701576828956604,8.680000305175781,1.2693363428115845,266.486084,159,-86.9127275,40.4270623,0.015363104623353597,0.094479686,-0.046606754,9.803864803129029,-0.779058328,0.1123639316189564,-0.09452137,-0.252853668,0.030181086902479524,0.6973245786231699,-0.021572182,-0.015881236,0.7156831674205447,-0.008293224,0.053012475,-1.544522828,-109.475966,55.09885879516602,-4.275733931,-50.07697285,6.798815860748291,22.064309616088867,Campus
200,9.924830143268291,-1.055936522,-0.251588623,0.014802668731912825,0.012237702405930143,-0.044842415,-43.33333333,45,0.21843239665031433,2.787275552749634,7.6519999504089355,1.307296872138977,267.24237060546875,158.79998779296875,-86.9127584,40.4270582,0.035266051674713784,4.5665374333129344E-4,-0.045183422,9.924830143268291,-1.055936522,-0.251588623,0.081033281,-0.098521687,0.096012007,0.7016959173008076,-0.020933082,-0.0459905,0.7097316384315491,0.035837388,0.095472282,-1.560858838,-106.2084397,58.76300701141358,-1.870869958,-46.80883736,10.463085770606995,24.469051513671875,Campus
201,9.697662992384828,-0.641999536,-0.710433109,-0.191438343,0.079215919,0.057329202,-43.22222222,45,0.2387068122625351,2.797261953353882,7.019999980926514,1.329672932624817,267.7599182128906,158.79998779296875,-86.9127731,40.4270584,-0.170974962,0.06742449,0.056952612,9.697662992384828,-0.641999536,-0.710433109,-0.165823886,0.060727244,0.072256878,0.6801960786569465,0.003867307,-0.052067518,0.7304177700894551,0.077266669,0.071091594,-1.502219829,-105.3739601,57.46285282,0.8696159883216024,-45.97386917,9.162931857,27.209415473937987,Campus
202,9.957414923,-0.54297908,-0.401207242,-0.112716146,-0.051809337,0.003000861,-44.625,45,0.20497030019760132,2.807149887084961,6.4070000648498535,1.2914880514144897,268.9206848144531,158.79998779296875,-86.9127869,40.4270587,-0.092252764,-0.063593352,0.00264058,9.957414923,-0.54297908,-0.401207242,0.052839686569658297,-0.13297546,0.074490408,0.628132245,0.00716861,-0.031740714,0.7767850883956094,0.051126572,0.040573903,-1.361375409,-105.6824978,59.39191696166992,-3.164801942,-46.03865112,11.28585373878479,23.12656362533569,Campus
203,9.898468406,-0.155382465,-0.540348127,0.13510992518599027,0.057048982958698154,0.041995749,-37.66666667,45,0.21795931458473206,2.817194938659668,5.709000110626221,1.2602992057800293,276.5646667480469,158.79998779296875,-86.9128013,40.4270621,0.1555733074596857,0.045256073,0.041628055,9.898468406,-0.155382465,-0.540348127,-7.45E-04,-0.083606267,-0.141485762,0.6358232897462197,0.012406943,-0.016375587,0.7699763728576956,0.04008361,0.009058518,-1.380564941,-107.5755719,56.712796936035154,-3.87801394,-47.87658104,8.652727799415588,22.40224952697754,Campus
204,9.575454818392263,0.3049484070942023,-0.281537077,-0.073806795,-0.04893239,0.01119642,-42.5,45,0.23285016417503357,2.8271586894989014,5.9070000648498535,1.196980595588684,278.0903015136719,158.79998779296875,-86.9128149,40.4270643,-0.053343411,-0.060720566,0.010830792,9.575454818392263,0.3049484070942023,-0.281537077,-0.324914194,-0.234009161,-0.147731694,0.6655004173517227,0.022201578491289044,0.016034383472288027,0.744882006,0.011916547,-0.053090573,-1.45772664,-109.4472958,46.497615051269534,-2.581885967,-49.74781719,-1.562453967,23.697889556884764,Campus
205,9.871618835671434,0.2373860110573977,-0.061133135,-0.016700444,-0.035197851,0.078298164,-41.88888889,45,0.2457076758146286,2.8372278213500977,6.182000160217285,1.2028619050979614,274.0559997558594,158.79998779296875,-86.9128299,40.4270685,0.003762937,-0.046975933,0.077923057,9.871618835671434,0.2373860110573977,-0.061133135,-0.030756918,0.095978515,-0.333928833,0.6818962768443579,-0.00507206,0.015035018407642499,0.7301655429080852,-0.027460374,-0.014340699,-1.502389455,-106.7615878,41.39545322418213,-3.10050794,-46.28923897,-6.227367893,23.95213752746582,Campus
