seconds_elapsed,gyroscope_z,gyroscope_y,gyroscope_x,accelerometer_z,accelerometer_y,accelerometer_x,orientation_qz,orientation_qy,orientation_qx,orientation_qw,orientation_roll,orientation_pitch,orientation_yaw,accelerometerUncalibrated_z,accelerometerUncalibrated_y,accelerometerUncalibrated_x,totalAcceleration_z,totalAcceleration_y,totalAcceleration_x,magnetometerUncalibrated_z,magnetometerUncalibrated_y,magnetometerUncalibrated_x,magnetometer_z,magnetometer_y,magnetometer_x,gyroscopeUncalibrated_z,gyroscopeUncalibrated_y,gyroscopeUncalibrated_x,microphone_dBFS,location_bearingAccuracy,location_speedAccuracy,location_verticalAccuracy,location_horizontalAccuracy,location_speed,location_bearing,location_altitude,location_longitude,location_latitude,class
0,4.661729081386798E-4,-2.57E-04,-2.89E-04,-0.001548002,-5.97E-04,0.001098104,-0.938108613,0.012663146260341531,-0.003734669,0.3460893478048475,0.001758695,0.026346876,2.434705878558912,9.916160056,-0.262006209,-0.016419171,9.915678291786008,-0.261572721,-0.01700509,-103.7863362,39.24442736,-50.16718111,-60.53654956,-18.95563672,-17.53094774,-0.020913481,0.014861270956891147,-1.37E-04,-100.375,45,1.5,1,12.347999572753906,0,0,149.39999389648438,-86.9109997,40.4279878,Classroom
1,0.004738514,5.367153575101379E-4,0.003860792,-0.012541715,-0.002862163,-4.81E-04,-0.937259856,0.011915115160343139,-0.003142008,0.3484108395946836,0.00241213,0.024526694843780648,2.429755696972597,9.891943357523205,-0.24579864,-0.024439315,9.891943357523205,-0.24579864,-0.024439315,-103.7082943,39.23861518859863,-50.18140511,-60.448437,-18.9612397,-17.54152557,-0.01664114,0.015655185032672096,0.004013504,-89.25,45,1.5,1,12.347999572753906,0,0,149.39999389648438,-86.9109997,40.4279878,Classroom
2,0.003006792,9.755765074339596E-4,0.003896375,-0.002088047,-7.62E-04,-0.001619947,-0.936243115,0.010892962467250893,-0.002267663,0.3511708095235732,0.003402109,0.021990309,2.4238653020951353,9.889774708,-0.218037336,-0.035245242,9.889774708,-0.218037336,-0.035245242,-103.7921078,39.22104728698731,-50.16225101,-60.53212894,-18.97880756,-17.5222497,-0.018372862,0.016094046210852062,0.004049087,-83.88888889,45,1.5,1,12.347999572753906,0,0,149.39999389648438,-86.9109997,40.4279878,Classroom
3,-0.001393681,-0.001289896,-0.003125403,0.023167286104368932,0.001383618,-8.25E-04,-0.936084282,0.010321691,-0.00217144,0.3516145782563293,0.003192456,0.020851787812646152,2.422926564818447,9.935115777173088,-0.205396528,-0.032596401,9.935115777173088,-0.205396528,-0.032596401,-103.7367203,39.17615135192871,-50.11991714,-60.47722866,-19.02455761,-17.4799156,-0.022773335,0.013828573902182787,-0.002972691,-90.5,45,1.5,1,12.347999572753906,0,0,149.39999389648438,-86.9109997,40.4279878,Classroom
4,-5.52E-04,-2.34E-04,-0.001097153,0.011486821961634367,0.001445298,0.001776656,-0.936808924,0.011010162514245626,-0.002979424,0.34965540656765687,0.002117747,0.022714316899191987,2.4271135075578414,9.955539129312756,-0.224446183,-0.019401029,9.955539129312756,-0.224446183,-0.019401029,-103.7112218,39.299371337890626,-50.26729305,-60.45136509,-18.89975174,-17.62643772,-0.021931195,0.014884213,-9.44E-04,-83.66666667,45,1.5,1,12.347999572753906,0,0,149.39999389648438,-86.9109997,40.4279878,Classroom
5,-1.96E-04,2.0460419139815765E-4,-3.14E-04,-0.006251326,4.0763414021834587E-4,8.102986346749426E-4,-0.936930264,0.011250256,-0.003190538,0.3493206153795557,0.001881754,0.023312559405576836,2.427827825824034,9.941498682,-0.231366202,-0.017867764,9.941498682,-0.231366202,-0.017867764,-103.6599816,39.29009922027588,-50.18713905,-60.40036877,-18.91134169,-17.54738163,-0.021575362,0.015323074010101337,-1.62E-04,-95,45,1.5,1,12.262999534606934,0.14606671035289764,255.85928344726562,149.39999389648438,-86.9110134,40.4279852,Classroom
6,-5.87E-05,1.7620595798899347E-4,-1.53E-04,-0.017230795,-0.002472898,3.497411425297077E-4,-0.937022984,0.011504033365501808,-0.003329544,0.349062269,0.001792014,0.023885785816953733,2.428377330303192,9.906451308611528,-0.239616214,-0.01742637,9.906451308611528,-0.239616214,-0.01742637,-103.6421699,39.278387298583986,-50.29193703,-60.38231281,-18.92146772,-17.65169153,-0.021438389,0.015294675715267658,-1.85E-11,-94.44444444,45,1.5,1,12.262999534606934,0.14606671035289764,255.85928344726562,149.39999389648438,-86.9110134,40.4279852,Classroom
7,-5.93E-06,2.757708600821715E-4,-5.34E-05,-0.006343175,-3.70E-04,0.002378384,-0.936995988,0.011667548091087526,-0.003373411,0.34912890340518027,0.001825741,0.024222763399910002,2.4282328665835187,9.896345703347215,-0.240170861,-0.015776948,9.896345703347215,-0.240170861,-0.015776948,-103.6665701,39.30412929534912,-50.253629,-60.40695694,-18.89682362,-17.61362747,-0.021385584,0.015394241,9.933678948691169E-5,-88.66666667,45,1.5,1,12.262999534606934,0.14606671035289764,255.85928344726562,149.39999389648438,-86.9110134,40.4279852,Classroom
8,8.89583386806319E-5,-4.45E-05,-1.01E-04,0.001446779,8.626027593334901E-4,-6.22E-04,-0.937050219,0.011697962,-0.003491455,0.3489811518817272,0.001621876,0.024362459977708972,2.428550025791798,9.900782890690182,-0.240234747,-0.016752663,9.900782890690182,-0.240234747,-0.016752663,-103.6452199,39.284731254577636,-50.25899689,-60.38536301,-18.91487976,-17.61862978,-0.021290695,0.015073990621106717,5.189234501618928E-5,-91.125,45,1.5,1,12.262999534606934,0.14606671035289764,255.85928344726562,149.39999389648438,-86.9110134,40.4279852,Classroom
9,-8.90E-05,4.062431093612776E-4,-7.71E-05,0.002106046,1.147033520115232E-4,4.991772177728634E-4,-0.937007389,0.011717314452149914,-0.00348145,0.3490955401392816,0.001657111,0.024391539,2.4283052787040043,9.904711918,-0.241396311,-0.01598603,9.904711918,-0.241396311,-0.01598603,-103.6676678,39.30425132751465,-50.22947311,-60.40720078,-18.8962137,-17.58910566,-0.021468612,0.015524712825212086,7.561457544583284E-5,-93.33333333,45,1.5,1,12.262999534606934,0.14606671035289764,255.85928344726562,149.39999389648438,-86.9110134,40.4279852,Classroom
10,4.151389138429489E-5,1.5715974749255817E-4,7.709722459605597E-5,0.004640681,0.001840443,7.240594391828602E-4,-0.936978797,0.011752623,-0.003461289,0.3491712817289297,0.001721542,0.024443499942861713,2.428142505942039,9.910206081797776,-0.240249265,-0.016404193,9.910206081797776,-0.240249265,-0.016404193,-103.6364359,39.334995155334475,-50.16639912,-60.37645687,-18.86571367,-17.52664162,-0.02133814,0.015275629535679099,2.298090201169614E-4,-87.75,45,1.5,1,12.262999534606934,0.14606671035289764,255.85928344726562,149.39999389648438,-86.9110134,40.4279852,Classroom
11,-6.52E-05,1.452986379289656E-4,-2.79E-04,0.019214519019265776,0.002156219,8.889923541291246E-4,-0.936857229,0.011661777498869642,-0.003380517,0.3495012157171675,0.001818017,0.024216194230231268,2.427438249865782,9.950337373293364,-0.23831018,-0.017186909,9.950337373293364,-0.23831018,-0.017186909,-103.6070341,39.328285179138184,-50.27192913,-60.34644501,-18.87120373,-17.63217163,-0.02144489,0.015263768428375998,-1.26E-04,-91,45,1.5,1,12.262999534606934,0.14606671035289764,255.85928344726562,149.39999389648438,-86.9110134,40.4279852,Classroom
12,-2.97E-05,2.4018752800065627E-4,4.151389138429489E-5,0.006431709,0.002511287,5.520580752382E-4,-0.936787238,0.011504361930402737,-0.003368417,0.3496940891140873,0.001735525,0.023912386534717476,2.427029130528274,9.961111716853763,-0.235341657,-0.016799125,9.961111716853763,-0.235341657,-0.016799125,-103.621674,39.2927832,-50.20543926,-60.36145088,-18.90658367,-17.56458374,-0.021409306,0.015358657304884739,1.9422569877278168E-4,-74.25,45,1.5,1,12.262999534606934,0.14606671035289764,255.85928344726562,149.39999389648438,-86.9110134,40.4279852,Classroom
13,5.930555912042127E-6,3.113542102476202E-4,6.523611277197172E-5,-0.003419459,-4.71E-04,0.002544859,-0.936746376,0.011484650885957537,-0.003348954,0.34980436204706583,0.001761018,0.023861625,2.426793645,9.94895886,-0.238074238,-0.015103241,9.94895886,-0.238074238,-0.015103241,-103.6444881,39.316817092895505,-50.24984707,-60.38402103,-18.88254967,-17.61021158,-0.021373723,0.015429824002955145,2.1794791111849176E-4,-91.88888889,45,1.5,1,12.262999534606934,0.14606671035289764,255.85928344726562,149.39999389648438,-86.9110134,40.4279852,Classroom
14,8.89583386806319E-5,3.8252087893163403E-4,1.482638978010532E-4,0.003061304,-3.05E-05,0.002512222,-0.936659452,0.011433473752033942,-0.003318768,0.3500390223507742,0.001787713,0.023744163365618697,2.4262929333066476,9.957461514519256,-0.235986326,-0.015544635,9.957461514519256,-0.235986326,-0.015544635,-103.6984126,39.346707305908204,-50.30389305,-60.43818893,-18.85412373,-17.66535557,-0.021290695,0.015500991,3.009756955824503E-4,-91.125,45,1.5,1,12.262999534606934,0.14606671035289764,255.85928344726562,149.39999389648438,-86.9110134,40.4279852,Classroom
15,1.2921768939122558E-4,9.39765192854863E-5,1.5271181473508477E-4,-0.005988075,3.072146612864274E-4,-1.39E-04,-0.936639162,0.011305034599410227,-0.003366138,0.35009703727868885,0.001610447,0.023536593384610918,2.4261723114893985,9.947515589519611,-0.234043609,-0.016055724,9.947515589519611,-0.234043609,-0.016055724,-103.6857237,39.31266929626465,-50.23057133,-60.42550095,-18.88694164,-17.59056965,-0.021250436,0.015212446298951713,3.054236171570105E-4,-104.5555556,0,1.5,1,10.932999610900879,0.093434028,0,149.39999389648438,-86.9110192,40.427978,Classroom
16,-2.97E-05,9.785418385115353E-5,-1.01E-04,-0.019344284,-0.001575153,-3.90E-04,-0.936685199,0.011452676646990104,-0.003393453,0.34996874847458403,0.001659415,0.023832564,2.426444060594133,9.908280789273457,-0.238135219,-0.016938513,9.908280789273457,-0.238135219,-0.016938513,-103.6698635,39.27387336730957,-50.27644325,-60.40988483,-18.92707964,-17.63522156,-0.021409306,0.015216323990121629,5.189235179766434E-5,-95.25,0,1.5,1,10.932999610900879,0.093434028,0,149.39999389648438,-86.9110192,40.427978,Classroom
17,-7.71E-05,3.587986496322363E-4,-1.96E-04,-0.0064998,-1.13E-06,0.002342249,-0.93680628,0.011684532105488685,-0.003499175,0.3496358154468166,0.001615029,0.024341556867494167,2.4271527632926273,9.899298945676934,-0.241085593,-0.013732595,9.899298945676934,-0.241085593,-0.013732595,-103.6247239,39.28790309906006,-50.28290886,-60.36511089,-18.91182962,-17.64315165,-0.021456751,0.015477268450251483,-4.30E-05,-106.4444444,0,1.5,1,10.932999610900879,0.093434028,0,149.39999389648438,-86.9110192,40.427978,Classroom
18,-2.97E-05,2.520486330432655E-4,-2.97E-05,0.001713864,-8.76E-04,-4.61E-04,-0.936807485,0.011778935898565551,-0.003485899,0.34962956014188745,0.001705806,0.024509189867423575,2.4271640569260975,9.903570721450361,-0.243490032,-0.01742637,9.903570721450361,-0.243490032,-0.01742637,-103.6288721,39.278753204345705,-50.21080723,-60.36889297,-18.92097967,-17.57043968,-0.021409306,0.015370518,1.230590295236449E-4,-101.5555556,0,1.5,1,10.932999610900879,0.093434028,0,149.39999389648438,-86.9110192,40.427978,Classroom
19,-1.13E-04,9.785418272090769E-5,5.337500320837914E-5,0.001836073,5.919315571923857E-4,0.001046475,-0.93682572,0.011828664626962351,-0.003490509,0.3495789763418216,0.001730628,0.024605690203245403,2.427271220290545,9.907496720841788,-0.24310381,-0.01617188,9.907496720841788,-0.24310381,-0.01617188,-103.6701083,39.30827728271484,-50.23374313,-60.41086079,-18.89096767,-17.59496176,-0.021492334,0.015216323935869828,2.060868043805138E-4,-93.875,0,1.5,1,10.932999610900879,0.093434028,0,149.39999389648438,-86.9110192,40.427978,Classroom
20,-4.15E-05,2.4018752460991873E-4,-1.78E-05,0.005570532,0.001520258,-3.06E-04,-0.936795921,0.011754671925479927,-0.003493424,0.3496612709702797,0.001675552,0.024468919732472273,2.4270969525124264,9.915494643724882,-0.240915827,-0.01684179,9.915494643724882,-0.240915827,-0.01684179,-103.6419259,39.35744338989258,-50.28486118,-60.38121502,-18.84277779,-17.64583569,-0.021421167,0.015358657304884739,1.3492013456625412E-4,-109.2222222,0,1.5,1,10.932999610900879,0.093434028,0,149.39999389648438,-86.9110192,40.427978,Classroom
21,-2.97E-05,7.413196133323086E-5,1.364027904979523E-4,0.020057465,0.002777443,8.273341702026071E-5,-0.936624573,0.011552168110620629,-0.003388181,0.3501277487833523,0.001743037,0.024014988697124918,2.426102578061298,9.956148943854767,-0.235675607,-0.017379907,9.956148943854767,-0.235675607,-0.017379907,-103.6134995,39.33060306549072,-50.33829712,-60.35364265,-18.8693737,-17.69707561,-0.021409306,0.015192601757431493,2.891145848886119E-4,-103.625,0,1.5,1,10.932999610900879,0.093434028,0,149.39999389648438,-86.9110192,40.427978,Classroom
22,-1.78E-05,2.75770863472909E-4,1.0081945050471616E-4,0.004630274,4.783734245207703E-4,0.001552207,-0.936524417,0.011410940447550954,-0.003327258,0.35040079997581186,0.001765183,0.023707211,2.4255208598757254,9.96372522,-0.235553642,-0.016264805,9.96372522,-0.235553642,-0.016264805,-103.6880418,39.35292911529541,-50.17603691,-60.42818493,-18.84838966,-17.53603571,-0.021397445,0.015394240672003876,2.5353125224197376E-4,-97,0,1.5,1,10.932999610900879,0.093434028,0,149.39999389648438,-86.9110192,40.427978,Classroom
23,4.151389138429489E-5,3.943819828439974E-4,7.709722685654765E-5,7.627820505679233E-4,4.177390082368573E-4,0.001992653,-0.936489723,0.011397361095307522,-0.003298779,0.3504942374900707,0.001811379,0.023661635,2.425321007237851,9.961846444213275,-0.235251637,-0.016032492,9.961846444213275,-0.235251637,-0.016032492,-103.6529058,39.41051330566406,-50.23057098,-60.39317097,-18.7889756,-17.58995966,-0.02133814,0.015512851790244718,2.2980903594040322E-4,-96.875,0,1.5,1,10.932999610900879,0.093434028,0,149.39999389648438,-86.9110192,40.427978,Classroom
24,1.0572356404736638E-4,2.349412646323729E-4,3.5241188015788794E-5,-0.001373438,3.82031099154399E-4,0.001900089,-0.936463765,0.011323771466357777,-0.003309007,0.35056586964772296,0.001742405,0.023530817626473997,2.4251695481630473,9.958933839520205,-0.233788065,-0.015521404,9.958933839520205,-0.233788065,-0.015521404,-103.5838538,39.371717071533205,-50.21141697,-60.32375294,-18.8274057,-17.57153767,-0.02127393,0.015353411042059843,1.879529949152269E-4,-102.8888889,0,1.5,1,10.932999610900879,0.093434028,0,149.39999389648438,-86.9110192,40.427978,Classroom
25,1.1268056232880041E-4,6.22708415974257E-5,1.719861214492217E-4,-0.004177797,-2.47E-04,0.001144004,-0.936514597,0.011242689980754575,-0.00340727,0.3504317240807617,0.001498086,0.023448063,2.425459408065648,9.952739808165912,-0.233622543,-0.013848752,9.952739808165912,-0.233622543,-0.013848752,-103.7074397,39.23873725891113,-50.25826504,-60.44721695,-18.96160561,-17.61692177,-0.021266973,0.015180740632044458,3.24697932228446E-4,-103.375,0,1.5,1,11.552000045776367,0.065742381,0,149.39999389648438,-86.9110181,40.4279841,Classroom
26,5.337500320837914E-5,-9.19E-05,2.0756945692147446E-4,-0.020150175,-0.002641738,-4.49E-04,-0.936650483,0.011383527907931689,-0.003552397,0.35006236364540544,0.001315545,0.023814142889623503,2.4262484809727343,9.913284172132178,-0.23910803,-0.013593207,9.913284172132178,-0.23910803,-0.013593207,-103.6819421,39.36390918731689,-50.23813496,-60.42232868,-18.83484766,-17.59776766,-0.021326278,0.015026546,3.602812677006988E-4,-110.7777778,0,1.5,1,11.552000045776367,0.065742381,0,149.39999389648438,-86.9110181,40.4279841,Classroom
27,-1.78E-05,-9.19E-05,7.709722685654765E-5,-0.007694578,-0.001885747,-0.001562379,-0.936661661,0.011510051,-0.003545942,0.35002838321102475,0.001415396,0.024046724,2.4263186177003733,9.899691174,-0.240043089,-0.015660792,9.899691174,-0.240043089,-0.015660792,-103.6630325,39.32535728,-50.25911896,-60.40390678,-18.87559574,-17.62033772,-0.021397445,0.015026546155726447,2.2980903989626366E-4,-106.375,0,1.5,1,11.552000045776367,0.065742381,0,149.39999389648438,-86.9110181,40.4279841,Classroom
28,1.1268056232880041E-4,2.2832640713460527E-4,-2.97E-05,6.893306102567506E-5,-7.67E-04,-2.83E-04,-0.936702011,0.011710811542003478,-0.003509979,0.3499141040357571,0.001620427,0.024397882443029904,2.426558242260831,9.902083998744928,-0.242279101,-0.016404193,9.902083998744928,-0.242279101,-0.016404193,-103.6986562,39.317183341979984,-50.15017323,-60.43818878,-18.88291561,-17.50992764,-0.021266973,0.015346796233749505,1.2305903008876784E-4,-97.22222222,0,1.5,1,11.552000045776367,0.065742381,0,149.39999389648438,-86.9110181,40.4279841,Classroom
29,2.9652779560210635E-5,9.785417933017015E-5,1.719861214492217E-4,0.002175248,8.530865595178697E-4,9.073174549537955E-4,-0.936690566,0.011686690160733404,-0.003512566,0.3499455081606374,0.001599507,0.024354443,2.4264916517202137,9.906377884057852,-0.240277357,-0.015139205,9.906377884057852,-0.240277357,-0.015139205,-103.7036578,39.38355140686035,-50.23459698,-60.44367889,-18.81837765,-17.59361971,-0.021350001,0.015216323990121629,3.2469792770746265E-4,-104.5,0,1.5,1,11.552000045776367,0.065742381,0,149.39999389648438,-86.9110181,40.4279841,Classroom
30,-1.01E-04,1.097152855030252E-4,5.930555912042127E-6,0.003572686,5.390429959713834E-5,-2.36E-04,-0.936684626,0.011656140040570093,-0.003530797,0.34996224259867253,0.001544387,0.024309937923567965,2.4264568541813825,9.912189400311812,-0.240763259,-0.015498173,9.912189400311812,-0.240763259,-0.015498173,-103.6257,39.38062316894531,-50.22386089,-60.36608681,-18.81947573,-17.58544571,-0.021480473,0.015228185079340796,1.5864236386565185E-4,-110.8888889,0,1.5,1,12.055000305175781,0.03273803,0,149.39999389648438,-86.9110188,40.4279826,Classroom
31,-1.78E-05,-1.87E-04,1.779166773612638E-5,0.001101503,1.423437039828995E-4,-7.17E-04,-0.93668923,0.011636173578648313,-0.003559601,0.3499502962075391,0.00147612,0.024292712126976077,2.426483311699432,9.916208351,-0.24065291,-0.015474942,9.916208351,-0.24065291,-0.015474942,-103.6215524,39.34902519226074,-50.28229908,-60.3618169,-18.85070759,-17.64278572,-0.021397445,0.014931657261133772,1.7050347342924442E-4,-116.3333333,0,1.5,1,12.055000305175781,0.03273803,0,149.39999389648438,-86.9110188,40.4279826,Classroom
32,1.2454167415288468E-4,-5.63E-05,1.719861214492217E-4,-0.001749224,-0.001031391,-7.53E-04,-0.936689485,0.011664921562503842,-0.003557089,0.3499486842780437,0.001500915,0.024344819,2.426486165778151,9.911167237365131,-0.242148424,-0.015591098,9.911167237365131,-0.242148424,-0.015591098,-103.66047,39.355613174438474,-50.19604488,-60.40061287,-18.84411961,-17.55555567,-0.021255112,0.015062129486677716,3.2469793109820015E-4,-103.75,0,1.5,1,12.055000305175781,0.03273803,0,149.39999389648438,-86.9110188,40.4279826,Classroom
33,-5.17E-04,7.048239170287091E-5,-0.002619595,9.253575251652644E-4,3.6856403144506307E-4,-5.16E-04,-0.936816372,0.011962924,-0.003650002,0.349597229,0.001525719,0.024968799902126193,2.4272327170922208,9.912950182424009,-0.247270923,-0.015776948,9.912950182424009,-0.247270923,-0.015776948,-103.6597383,39.39831340789795,-50.3107251,-60.39951462,-18.8016637,-17.67011356,-0.021896524,0.015188952164652828,-0.002466883,-101.2222222,0,1.5,1,12.055000305175781,0.03273803,0,149.39999389648438,-86.9110188,40.4279826,Classroom
34,-0.001002264,9.78542041955787E-5,1.1268057137076716E-4,7.266998291015625E-4,2.1801700869810233E-4,1.259880158507708E-4,-0.93734139,0.012963428749766165,-0.004064773,0.3481471399659092,0.00140666,0.027135883756343602,2.4303172467981726,9.914010159020284,-0.268939906,-0.013895214,9.914010159020284,-0.268939906,-0.013895214,-103.5891001,39.44882114,-50.19543503,-60.32960869,-18.75176575,-17.55482365,-0.022381917,0.015216323999163596,2.653923770638852E-4,-103.625,0,1.5,1,12.055000305175781,0.03273803,0,149.39999389648438,-86.9110188,40.4279826,Classroom
35,0.004572459,0.002849632,0.007383542,0.003084275,6.399715988381396E-5,-5.75E-04,-0.936185049,0.011736573,-0.003075509,0.35128933943591073,0.002483676,0.024136419,2.423610370136002,9.919931282,-0.239270649,-0.025278545,9.919931282,-0.239270649,-0.025278545,-103.6333858,39.42124919891357,-50.25082336,-60.37352901,-18.77884975,-17.6106996,-0.016807195,0.017968102,0.007536254,-97.55555556,0,1.5,1,12.762999534606934,0.082127951,0,149.39999389648438,-86.9110139,40.427984,Classroom
36,0.002888181,0.001141632,9.666806294863085E-4,-0.001673569,0.002998519,-0.003264456,-0.933484674,0.009723017,-2.17E-04,0.3584820807558819,0.006566541,0.018307502,2.4082128839585386,9.920134461041792,-0.17856439,-0.068465509,9.920134461041792,-0.17856439,-0.068465509,-103.75441,39.25752517700195,-50.09710281,-60.49406471,-18.94306158,-17.4561256,-0.018491473,0.016260102,0.001119392,-97.125,0,1.5,1,12.762999534606934,0.082127951,0,149.39999389648438,-86.9110139,40.427984,Classroom
37,-0.001132736,-0.001788063,-0.002686542,9.93080509519114E-4,-0.003527335,0.003810195,-0.934657242,0.010296594089313039,-0.001510056,0.35539515302019214,0.004495609,0.020321712,2.4148318096271995,9.919652438858181,-0.205001595,-0.040843508,9.919652438858181,-0.205001595,-0.040843508,-103.6954841,39.39721515655518,-50.17018108,-60.43648083,-18.80349363,-17.53078966,-0.02251239,0.013330407246825222,-0.00253383,-101,0,1.5,1,12.762999534606934,0.082127951,0,149.39999389648438,-86.9110139,40.427984,Classroom
38,-4.69E-04,-7.92E-04,-0.001144597,-8.98E-04,-2.85E-04,-0.001954772,-0.935111047,0.010519596,-0.001853832,0.354188765,0.003983208,0.020987534208349812,2.4174139268189956,9.915750595239492,-0.208457416,-0.041276191,9.915750595239492,-0.208457416,-0.041276191,-103.6771841,39.40380332946777,-50.23972122,-60.41696068,-18.79727177,-17.59849977,-0.021848168,0.014326741,-9.92E-04,-100.5555556,0,1.5,1,12.762999534606934,0.082127951,0,149.39999389648438,-86.9110139,40.427984,Classroom
39,-1.72E-04,-3.26E-05,-2.31E-04,1.9131817863982857E-4,0.001482971,-0.001155746,-0.935834829,0.011242562452855619,-0.002526986,0.3522504614394845,0.003191549,0.022824606,2.4215570398904744,9.918113273324318,-0.224864346,-0.033061027,9.918113273324318,-0.224864346,-0.033061027,-103.7039018,39.42734931945801,-50.15846893,-60.44441093,-18.77287163,-17.51773567,-0.021551639,0.015085851764577685,-7.86E-05,-111.5,0,1.5,1,12.762999534606934,0.082127951,0,149.39999389648438,-86.9110139,40.427984,Classroom
40,-1.84E-04,1.0971529002400857E-4,-2.97E-05,0.002143712,7.64931289895067E-4,7.917192556615015E-4,-0.935871072,0.011269242638378467,-0.00256757,0.35215300929199145,0.003131992,0.02290347,2.421765549668988,9.921252426591892,-0.226258224,-0.030459122,9.921252426591892,-0.226258224,-0.030459122,-103.7390382,39.44711342,-50.1596891,-60.47979076,-18.75310768,-17.51907761,-0.021563501,0.015228185079340796,1.230590238724157E-4,-95.11111111,0,1.5,1,12.456999778747559,0.085610226,0,149.39999389648438,-86.911019,40.4279825,Classroom
41,-4.21E-04,-4.45E-05,-2.67E-04,8.367334754721633E-4,-5.53E-04,0.002124516,-0.935992375,0.011380266334897684,-0.002718002,0.351825719,0.002920453,0.023218278131149347,2.422465655410174,9.924716737,-0.230974176,-0.026533035,9.924716737,-0.230974176,-0.026533035,-103.6332644,39.45260326385498,-50.25057903,-60.37340656,-18.74627569,-17.6093576,-0.021800723,0.015073991,-1.14E-04,-106.25,0,1.5,1,12.456999778747559,0.085610226,0,149.39999389648438,-86.911019,40.4279825,Classroom
42,-1.01E-04,3.9438197832301404E-4,5.515417088618846E-4,-8.28E-04,-0.00250924,0.002048352,-0.936097949,0.011390482,-0.002856789,0.3515433304518172,0.002660743,0.023335902834112205,2.4230715024818497,9.919629134,-0.233677717,-0.024558375,9.919629134,-0.233677717,-0.024558375,-103.7108561,39.360005111694335,-50.05501305,-60.45087708,-18.84070364,-17.41549965,-0.021480473,0.015512851808328652,7.042535128596338E-4,-117.5555556,0,1.5,1,12.456999778747559,0.085610226,0,149.39999389648438,-86.911019,40.4279825,Classroom
43,-8.69E-04,3.054236854390743E-4,-2.58E-04,-0.001246434,0.001566876,-6.37E-04,-0.935945678,0.011344909524688354,-0.002660854,0.3519500342126076,0.003004902,0.023111111,2.4221994143265944,9.917367083,-0.227814719,-0.03059851,9.917367083,-0.227814719,-0.03059851,-103.7042677,39.40050937652588,-50.21983509,-60.44441078,-18.79885759,-17.57897964,-0.022248937,0.015423893444956495,-1.06E-04,-98,0,1.5,1,12.456999778747559,0.085610226,0,149.39999389648438,-86.911019,40.4279825,Classroom
44,0.001144597,1.3343753740733977E-4,2.7873611656352155E-4,-5.55E-04,0.001147243,0.001103153,-0.935700622,0.011093993,-0.002454215,0.35261163549515806,0.003231578,0.022493856425568896,2.420786512708201,9.917863614350846,-0.221870414,-0.031016673,9.917863614350846,-0.221870414,-0.031016673,-103.6755983,39.42783729553223,-50.20836727,-60.41525272,-18.77250566,-17.56836565,-0.020235056,0.015251907366282732,4.3144793751495847E-4,-96.44444444,0,1.5,1,12.456999778747559,0.085610226,0,149.39999389648438,-86.911019,40.4279825,Classroom
45,-5.93E-06,2.6687507255418788E-5,1.0081945050471616E-4,0.003272473,-2.06E-04,0.001759971,-0.935963137,0.011215998754990332,-0.002770261,0.3519083686823984,0.002708991,0.022947271,2.4222931746140266,9.923947176886994,-0.227768257,-0.02518562,9.923947176886994,-0.227768257,-0.02518562,-103.6521734,39.375743026733396,-50.21556492,-60.39182873,-18.82374563,-17.57507568,-0.021385584,0.015145157283009256,2.535312590234488E-4,-98.25,45,1.5,1,12.961999893188477,0.11920138448476791,32.092613220214844,149.39999389648438,-86.9110148,40.4279874,Classroom
46,-1.48E-04,-9.19E-05,-8.90E-05,1.553007699910877E-4,-3.19E-04,-5.15E-04,-0.935986765,0.011174330587308962,-0.002834447,0.35184635699374006,0.002557946,0.022914626,2.422427670469562,9.925974142204211,-0.227675333,-0.025975484,9.925974142204211,-0.227675333,-0.025975484,-103.6843821,39.451505432128904,-50.25082291,-60.42513477,-18.74761763,-17.61008961,-0.021527917,0.015026546,6.375347209859242E-5,-104,45,1.5,1,12.961999893188477,0.11920138448476791,32.092613220214844,149.39999389648438,-86.9110148,40.4279874,Classroom
47,-1.78E-05,-5.63E-05,-7.71E-05,-0.00248134,-4.34E-04,-6.70E-05,-0.936066623,0.011269174941173457,-0.002948974,0.3516298937566072,0.002404932,0.023173363553812203,2.4228905844456943,9.919952319218563,-0.230125117,-0.024250337,9.919952319218563,-0.230125117,-0.024250337,-103.6896284,39.532147331237795,-50.26790287,-60.42952667,-18.66831774,-17.6285116,-0.021397445,0.015062129495719683,7.561458109706207E-5,-99.5,45,1.5,1,12.961999893188477,0.11920138448476791,32.092613220214844,149.39999389648438,-86.9110148,40.4279874,Classroom
48,-2.55E-04,8.599306976657758E-5,-1.72E-04,2.4003889954205855E-4,-0.001301093,3.879772119441079E-4,-0.936196493,0.011431124196975555,-0.00309542,0.35127745409613675,0.002235756,0.023580439623843118,2.4236433367127352,9.920343482378618,-0.235277771,-0.02158477,9.920343482378618,-0.235277771,-0.02158477,-103.6180143,39.41478336334229,-50.24203888,-60.35766888,-18.78580372,-17.60264771,-0.021634667,0.015204463,-1.93E-05,-105.7777778,45,1.5,1,12.961999893188477,0.11920138448476791,32.092613220214844,149.39999389648438,-86.9110148,40.4279874,Classroom
49,3.6176391063456973E-4,0.00101116,0.002164653,-6.93E-05,-2.77E-05,-3.32E-04,-0.936073013,0.011357946,-0.002984673,0.351608833,0.002399582,0.023364532,2.422934434946301,9.921043294147381,-0.231647883,-0.024186675,9.921043294147381,-0.231647883,-0.024186675,-103.6686437,39.43576744,-50.27046497,-60.40903091,-18.76457563,-17.62985365,-0.02101789,0.016129629505635464,0.002317365,-124.5555556,45,1.5,1,12.961999893188477,0.11920138448476791,32.092613220214844,149.39999389648438,-86.9110148,40.4279874,Classroom
50,5.337500320837914E-5,6.22708653325884E-5,-5.34E-05,-1.65E-05,1.2854797747528668E-4,2.0801058961349785E-4,-0.935496222,0.010820562,-0.0024254,0.3531622666757084,0.003105485,0.021959991,2.419614034948997,9.920546781669543,-0.217552297,-0.030854054,9.920546781669543,-0.217552297,-0.030854054,-103.6403403,39.35683300018311,-50.19506886,-60.37999477,-18.84302174,-17.55506769,-0.021326278,0.015180740641086425,9.933684938994137E-5,-98.25,45,1.5,1,12.961999893188477,0.11920138448476791,32.092613220214844,149.39999389648438,-86.9110148,40.4279874,Classroom
51,-4.80E-04,-1.75E-04,-0.001369958,0.012879121650769872,7.07387779522868E-4,0.001034413,-0.935694105,0.011075304658378212,-0.002598323,0.35262860430097115,0.002949082,0.02256053,2.420753226696866,9.944687139640735,-0.223380447,-0.027926912,9.944687139640735,-0.223380447,-0.027926912,-103.6192338,39.367569313049316,-50.18530891,-60.35864494,-18.83277367,-17.54579584,-0.021860028,0.014943518440772607,-0.001217247,-99.77777778,45,1.5,1,12.961999893188477,0.11920138448476791,32.092613220214844,149.39999389648438,-86.9110148,40.4279874,Classroom
52,0.001726818,0.001409648,0.003853037,0.009733897,7.561810601216096E-4,-5.95E-04,-0.935426662,0.010823391557026368,-0.002325943,0.3533460388963039,0.003297337,0.021894222,2.419219101850803,9.961634348897102,-0.216997652,-0.033827659,9.961634348897102,-0.216997652,-0.033827659,-103.6153303,39.372693099975585,-50.2095871,-60.35535091,-18.82691765,-17.56970768,-0.019652836,0.016528117,0.004005748,-86.75,45,1.5,1,12.961999893188477,0.11920138448476791,32.092613220214844,149.39999389648438,-86.9110148,40.4279874,Classroom
53,0.005580653,0.00239891,0.002093486,0.001603654,0.00125463,-0.001704514,-0.933620009,0.009268067,-4.88E-04,0.3581422292491765,0.005726866,0.017655461646833466,2.4089539213087954,9.9664171,-0.17459184,-0.058824525,9.9664171,-0.17459184,-0.058824525,-103.7186641,39.40978134155274,-50.22300694,-60.45966091,-18.79141577,-17.58337162,-0.015799001,0.017517379683993972,0.002246198,-20.44444444,45,1.5,1,12.961999893188477,0.11920138448476791,32.092613220214844,149.39999389648438,-86.9110148,40.4279874,Classroom
54,-0.00789357,-0.001171285,-8.01E-04,-0.005188183,-0.003946809,0.00292103,-0.933552492,0.009345329,-3.41E-04,0.3583182926895549,0.006062145,0.017693574440855425,2.4085734700693666,9.956755805,-0.180120886,-0.057523573,9.956755805,-0.180120886,-0.057523573,-103.741722,39.19701328277588,-49.98034912,-60.4816209,-19.00430559,-17.3397377,-0.029273224,0.013947185029465597,-6.48E-04,-67.875,45,1.5,1,12.961999893188477,0.11920138448476791,32.092613220214844,149.39999389648438,-86.9110148,40.4279874,Classroom
55,-0.017157098,5.841598296718835E-4,7.531805827454167E-4,-0.004013062,-0.006997004,0.006373426,-0.93411061,0.009610374,-8.79E-04,0.3568488796359127,0.005216014,0.018580918,2.4117228984832764,9.945709311846391,-0.191797513,-0.045582691,9.945709311846391,-0.191797513,-0.045582691,-103.7059761,38.91641334533691,-50.10857128,-60.44672882,-19.28344175,-17.4680817,-0.038536752,0.01570263,9.058924500369331E-4,-90.77777778,45,1.5,1,12.961999893188477,0.11920138448476791,32.092613220214844,149.39999389648438,-86.9110148,40.4279874,Classroom
56,-0.032778182,0.001461882,0.00191557,-0.004716401,0.003645545,-0.019185644,-0.937433096,0.009528822,-6.10E-04,0.34801901949262154,0.00549024,0.018293497704186486,2.4305912661320956,9.940849487598125,-0.17812724,-0.073947423,9.940849487598125,-0.17812724,-0.073947423,-103.6410722,37.91125541687012,-50.01731483,-60.38084881,-20.28920956,-17.37633764,-0.054157837,0.016580351836328368,0.002068281,-91.75,45,1.5,1,12.961999893188477,0.11920138448476791,32.092613220214844,149.39999389648438,-86.9110148,40.4279874,Classroom
57,0.003754042,9.044097878888828E-4,8.717917281121594E-4,-0.012315602,-0.006029855,0.001876699,-0.937050853,0.009394773,0.001609379,0.3490613253371229,0.00957598,0.016483292,2.4283411549133005,9.912880554939937,-0.169248644,-0.093415912,9.912880554939937,-0.169248644,-0.093415912,-103.6791364,37.50767921447754,-49.87152531,-60.41964474,-20.69193155,-17.23274364,-0.017625612,0.01602288,0.001024504,-87.88888889,45,1.5,1,12.961999893188477,0.11920138448476791,32.092613220214844,149.39999389648438,-86.9110148,40.4279874,Classroom
58,0.009577848,0.003751077,9.666806204443418E-4,0.014075437,-0.001821259,0.001214425,-0.937155903,0.009667609,0.00174913,0.3487684541535609,0.010023009113388734,0.016898547868850162,2.4289578,9.944933956109205,-0.169875888,-0.098410639,9.944933956109205,-0.169875888,-0.098410639,-103.837858,37.755949325561524,-49.93057301,-60.57848892,-20.44378359,-17.29093781,-0.011801806,0.018869546359603844,0.001119392,-80.25,45,1.5,1,12.961999893188477,0.11920138448476791,32.092613220214844,149.39999389648438,-86.9110148,40.4279874,Classroom
59,0.009530403,0.001687243,4.329305883605503E-4,0.004237073,0.002375818,-7.13E-04,-0.935781826,0.009761608,0.003741003,0.3524234251489917,0.013883840265566284,0.015632683257527143,2.421123956013652,9.952922663642365,-0.153521062,-0.138275529,9.952922663642365,-0.153521062,-0.138275529,-103.829562,37.98262523651123,-49.87664894,-60.56946079,-20.21637556,-17.23835571,-0.011849251,0.016805712956464984,5.856423720138744E-4,-89.88888889,45,1.5,1,12.961999893188477,0.11920138448476791,32.092613220214844,149.39999389648438,-86.9110148,40.4279874,Classroom
60,0.002105347,2.9949314815435306E-4,3.024583628166069E-4,-4.26E-04,-6.32E-04,0.002694718,-0.935662505,0.009729699,0.00398224,0.3527384929865309,0.014318024007223764,0.015398212798952478,2.420448398127139,9.950895781655914,-0.153404905,-0.140528964,9.950895781655914,-0.153404905,-0.140528964,-103.9263081,38.15293712615967,-49.83224106,-60.66632904,-20.04642954,-17.19297167,-0.019274307,0.015417962760022543,4.5517014533968513E-4,-93.875,45,1.5,1,13.869999885559082,0,0,149.39999389648438,-86.9110105,40.4279902,Classroom
61,-1.53E-04,-0.001127718,-3.52E-05,-0.016994293,-0.003240936,1.2786199267093953E-5,-0.936072939,0.009675011,0.00350045,0.3516552560031414,0.01335987,0.015651659457944334,2.422770869273406,9.918490900576693,-0.158515788,-0.132816177,9.918490900576693,-0.158515788,-0.132816177,-103.904958,38.18355918884277,-49.76733738,-60.64485703,-20.01617348,-17.12721371,-0.021532365,0.013990751798981084,1.1747061160769171E-4,-88,45,1.5,1,13.869999885559082,0,0,149.39999389648438,-86.9110105,40.4279902,Classroom
62,2.787361414289301E-4,-0.001242451,7.709722685654765E-5,-0.009374174,-0.002412818,-9.76E-04,-0.936518583,0.009764277,0.003019785,0.35046846137463467,0.012502208695683664,0.016172634473848112,2.4253098756364246,9.900132447770499,-0.162604496,-0.124894307,9.900132447770499,-0.162604496,-0.124894307,-103.8698221,38.218207092285155,-49.79783707,-60.60947685,-19.98115974,-17.15673767,-0.021100918,0.013876018385646992,2.2980903481015737E-4,-92.44444444,45,1.5,1,13.869999885559082,0,0,149.39999389648438,-86.9110105,40.4279902,Classroom
63,0.001500431,0.003276632,0.001014125,-0.001457862,-4.81E-04,-4.64E-04,-0.935883275,0.009823719,0.003956081,0.35214532260755893,0.014324917846802369,0.015599070351968692,2.4217131299879946,9.899876835,-0.154868476,-0.142317773,9.899876835,-0.154868476,-0.142317773,-103.9416792,38.210033378601075,-49.74476692,-60.68194489,-19.99006552,-17.1054977,-0.019879224,0.018395102008707025,0.001166837,-73,45,1.5,1,13.869999885559082,0,0,149.39999389648438,-86.9110105,40.4279902,Classroom
64,-0.001749514,-0.006710424,-0.001002264,0.003818419,-6.05E-04,4.913845976579536E-4,-0.937023854,0.009473073,0.002383359,0.3491178739418104,0.011081690981405453,0.016083468466056784,2.4282064692487992,9.907287644,-0.15981674,-0.109282882,9.907287644,-0.15981674,-0.109282882,-103.8764096,38.11902099609375,-49.87823505,-60.61606518,-20.08022362,-17.23920971,-0.023129168,0.008408046,-8.50E-04,-80.44444444,45,1.5,1,13.869999885559082,0,0,149.39999389648438,-86.9110105,40.4279902,Classroom
65,-1.60E-04,-0.001111979,-3.85E-04,0.001718623,0.001343594,-1.10E-04,-0.938099556,0.009213438,8.978825568298366E-4,0.346241629,0.008065912,0.016665052767228156,2.4343698418256148,9.911074323561586,-0.163719597,-0.080081153,9.911074323561586,-0.163719597,-0.080081153,-103.8210218,38.17648319244385,-49.94777508,-60.56079887,-20.02349358,-17.3083836,-0.021539779,0.014006490538855202,-2.33E-04,-79.625,45,1.5,1,13.869999885559082,0,0,149.39999389648438,-86.9110105,40.4279902,Classroom
66,0.001986736,-0.001171285,-0.001405542,0.014829737,9.351388632672504E-4,0.001227753,-0.938961341,0.0093564,-2.24E-04,0.3438944061404293,0.006016182,0.017724877259540327,2.439384872473559,9.934263404,-0.174883124,-0.058624155,9.934263404,-0.174883124,-0.058624155,-103.6059362,38.353627319335935,-50.12430874,-60.3454689,-19.8467156,-17.48467367,-0.019392917,0.013947185,-0.00125283,-88,45,1.5,1,13.869999885559082,0,0,149.39999389648438,-86.9110105,40.4279902,Classroom
67,-0.001298792,-0.002452285,-0.003694736,0.015577260730336013,0.002487252,0.001025339,-0.939736963,0.009910588,-0.001137467,0.34174576372776216,0.004633947,0.019403209584285912,2.443962877236524,9.967279545311788,-0.190714353,-0.044816058,9.967279545311788,-0.190714353,-0.044816058,-103.607766,38.46818542480469,-50.14224304,-60.34742092,-19.73179167,-17.50114372,-0.022678445,0.012666184916296631,-0.003542025,-105.25,45,1.5,1,13.869999885559082,0,0,149.39999389648438,-86.9110105,40.4279902,Classroom
68,-7.06E-04,-6.97E-04,-0.001369958,0.002844598,7.947842472965278E-4,0.001215554,-0.941041405,0.010883929470138064,-0.002673016,0.3381052815798417,0.002329383,0.022293687,2.4517157448148263,9.969829142672344,-0.221402884,-0.022026165,9.969829142672344,-0.221402884,-0.022026165,-103.621918,38.54711948394775,-50.20446308,-60.36218277,-19.65114967,-17.56482767,-0.02208539,0.01442163,-0.001217247,-96.55555556,45,1.5,1,13.869999885559082,0,0,149.39999389648438,-86.9110105,40.4279902,Classroom
69,-1.78E-05,1.2157639845735529E-4,-1.84E-04,-0.001767649,0.001110356,2.5475540569106354E-4,-0.941198581,0.011080372906787303,-0.002919278,0.3376594923653649,0.001988064,0.022831088854271233,2.4526643660462017,9.965209081334976,-0.226467306,-0.019540417,9.965209081334976,-0.226467306,-0.019540417,-103.5942247,38.549803199768064,-50.22312908,-60.33375675,-19.64822165,-17.58361565,-0.021397445,0.015240046,-3.11E-05,-106.25,45,1.5,1,13.869999885559082,0,0,149.39999389648438,-86.9110105,40.4279902,Classroom
70,-1.17E-05,1.0572357188301304E-4,2.5843537878245115E-4,-0.003616902,-8.30E-04,0.001162582,-0.941175761,0.011048784613824235,-0.002979191,0.33772360246915084,0.001855468,0.022811959139429606,2.452529799479705,9.957232114180778,-0.228000571,-0.017333445,9.957232114180778,-0.228000571,-0.017333445,-103.5806816,38.57530132293701,-50.17786713,-60.32058079,-19.62552967,-17.53847569,-0.0213914,0.015224193,4.1114718512220023E-4,-98.22222222,45,1.5,1,13.869999885559082,0,0,149.39999389648438,-86.9110105,40.4279902,Classroom
71,5.930555912042127E-6,6.227083820668818E-5,1.6012500962513744E-4,-0.002138888,-0.001711804,-3.37E-04,-0.941145946,0.011120841974048938,-0.003004652,0.337804089,0.001858191,0.022964653803162205,2.4523579657656476,9.954987414832255,-0.230277237,-0.018913172,9.954987414832255,-0.230277237,-0.018913172,-103.5991043,38.56212535858154,-50.25314087,-60.33888081,-19.63687569,-17.61313965,-0.021373723,0.015180740650128392,3.128368181438701E-4,-96.875,45,1.5,1,13.869999885559082,0,0,149.39999389648438,-86.9110105,40.4279902,Classroom
72,-1.78E-05,8.599306411534837E-5,1.957083450973902E-4,6.14795869993932E-6,-3.71E-04,-3.34E-04,-0.941056779,0.011152526499359931,-0.002950545,0.3380518341527402,0.001987527,0.022987215318581434,2.451829808429607,9.954101719902557,-0.229092441,-0.020190893,9.954101719902557,-0.229092441,-0.020190893,-103.5869043,38.55321922302246,-50.1895789,-60.32643669,-19.6451717,-17.54921164,-0.021397445,0.015204462846650661,3.4842015474636866E-4,-101.3333333,45,1.5,1,13.869999885559082,0,0,149.39999389648438,-86.9110105,40.4279902,Classroom
73,-1.13E-04,3.232153051180168E-4,-8.90E-05,-0.001561443,-2.65E-04,0.001099707,-0.94097592,0.011147483903010494,-0.002919879,0.33827726875694053,0.00204734,0.022956498600180866,2.451350126451659,9.953262505022067,-0.228697509,-0.019354567,9.953262505022067,-0.228697509,-0.019354567,-103.5931264,38.559197425842285,-50.20043705,-60.33265896,-19.64077963,-17.55982569,-0.021492334,0.015441685119300212,6.375346531711735E-5,-93.77777778,45,1.5,1,13.869999885559082,0,0,149.39999389648438,-86.9110105,40.4279902,Classroom
74,2.9652779560210635E-5,2.0460419026791183E-4,-5.93E-06,-0.00394511,2.2828159401717696E-4,0.001072344,-0.940973705,0.011255926760003983,-0.002943241,0.33827963934361355,0.002076833,0.023176409231806264,2.4513435988750274,9.941719397757817,-0.230187215,-0.019656573,9.941719397757817,-0.230187215,-0.019656573,-103.5590884,38.467819442749025,-50.259851,-60.29874287,-19.73313366,-17.62058167,-0.021350001,0.015323074046269205,1.467812446949696E-4,-107,45,1.5,1,13.869999885559082,0,0,149.39999389648438,-86.9110105,40.4279902,Classroom
75,1.482638978010532E-4,1.571597407110831E-4,1.1268056232880041E-4,0.00233453,5.552072837514784E-4,-5.14E-04,-0.940955635,0.011214582511739245,-0.003011479,0.33833065484333963,0.001921644,0.023144656195513254,2.451237173913752,9.949581072880672,-0.229480895,-0.019763795,9.949581072880672,-0.229480895,-0.019763795,-103.6287503,38.55748931884766,-50.27778507,-60.36877094,-19.64212168,-17.63851564,-0.02123139,0.015275629526637132,2.6539236293581214E-4,-105.1111111,45,1.5,1,14.029000282287598,0,0,149.39999389648438,-86.9110016,40.4279933,Classroom
76,-8.90E-05,2.4018753591237716E-4,-2.55E-04,-0.017170767,-0.002451449,1.7845466081957214E-4,-0.940942497,0.011478198149684564,-0.002998777,0.33835838084082004,0.002124663,0.023632164,2.4511732383839133,9.917942047,-0.237307605,-0.020794906,9.917942047,-0.237307605,-0.020794906,-103.639486,38.61726947784424,-50.32341282,-60.37914101,-19.58380564,-17.68280155,-0.021468612,0.015358657332010639,-1.02E-04,-91.375,45,1.5,1,14.029000282287598,0,0,149.39999389648438,-86.9110016,40.4279933,Classroom
77,6.52361150324634E-5,-5.63E-05,1.779166773612638E-5,-0.009397201,-2.43E-04,6.499228438416731E-4,-0.940956815,0.011621199909923146,-0.003061116,0.3383132170126276,0.002103053,0.023943604594006122,2.451267867412382,9.898529497165125,-0.237656074,-0.020307049,9.898529497165125,-0.237656074,-0.020307049,-103.6095963,38.56285705566406,-50.25826523,-60.34961678,-19.63833971,-17.61911764,-0.021314417,0.015062129549971484,1.7050346608264643E-4,-114.1111111,45,1.5,1,14.029000282287598,0,0,149.39999389648438,-86.9110016,40.4279933,Classroom
78,5.930555912042127E-6,-8.90E-06,-1.01E-04,-6.24E-04,-7.46E-04,4.752403649600964E-4,-0.941028848,0.011715296475053991,-0.003185534,0.3381084085089489,0.001927282,0.024205334,2.4517039581409934,9.900690005,-0.239982107,-0.019099022,9.900690005,-0.239982107,-0.019099022,-103.5845861,38.501857414245606,-50.13907089,-60.3243626,-19.69811975,-17.49931376,-0.021373723,0.015251907321072898,5.1892348972049734E-5,-118.125,45,1.5,1,14.029000282287598,0,0,149.39999389648438,-86.9110016,40.4279933,Classroom
79,-1.76E-04,-1.12E-11,-1.17E-05,0.00214795,-3.70E-04,5.733721459714266E-4,-0.941049136,0.011758849812814822,-0.003237231,0.33804992930247235,0.001857916,0.024322393672684066,2.4518284797668457,9.905057499709638,-0.241370176,-0.017565758,9.905057499709638,-0.241370176,-0.017565758,-103.6376558,38.53345520019531,-50.17652481,-60.37731098,-19.66578955,-17.53652365,-0.021555859,0.015271181616788873,1.4096474366781948E-4,-98.11111111,45,1.5,1,14.029000282287598,0,0,149.39999389648438,-86.9110016,40.4279933,Classroom
80,7.709722685654765E-5,5.1892357448893554E-5,1.719861214492217E-4,0.005231441,-7.81E-04,-6.47E-04,-0.941009818,0.011769265605552682,-0.003229168,0.33815909126429883,0.001882965,0.024336332455277443,2.451596084150296,9.913560034001915,-0.241837705,-0.019377798,9.913560034001915,-0.241837705,-0.019377798,-103.6088642,38.52772129058838,-50.18811501,-60.34986073,-19.67079172,-17.54774773,-0.021302556,0.015323074010101337,3.246979288377085E-4,-89.875,45,1.5,1,14.029000282287598,0,0,149.39999389648438,-86.9110016,40.4279933,Classroom
81,1.482638978010532E-4,1.1119791487394606E-4,1.482638978010532E-4,0.019993319094759748,0.002651855,3.41916691909716E-4,-0.940817478,0.011606886657406983,-0.003079067,0.33870078290550454,0.002069397,0.023927969026189405,2.4504445270427224,9.951758190266137,-0.234908974,-0.020283818,9.951758190266137,-0.234908974,-0.020283818,-103.5205362,38.54663116455078,-50.26107128,-60.26031281,-19.65358965,-17.61936167,-0.02123139,0.015382379528532908,3.0097570179880243E-4,-113.3333333,45,1.5,1,14.029000282287598,0,0,149.39999389648438,-86.9110016,40.4279933,Classroom
82,1.1268056232880041E-4,1.9422569594716707E-4,7.709722685654765E-5,0.007771223,1.1181744556982541E-4,0.00139223,-0.940705104,0.011399435765534928,-0.003049699,0.3390201333078366,0.001992091,0.023516999810789394,2.4497687261081436,9.965659160058475,-0.233971012,-0.01851824,9.965659160058475,-0.233971012,-0.01851824,-103.6015442,38.54004325866699,-50.22105507,-60.34180866,-19.66042168,-17.58129766,-0.021266973,0.015465407,2.2980903763577198E-4,-107.5,45,1.5,1,14.029000282287598,0,0,149.39999389648438,-86.9110016,40.4279933,Classroom
83,1.482638978010532E-4,-7.41E-06,1.1268056232880041E-4,0.001491491,-3.86E-04,3.3689615795913253E-4,-0.940680267,0.011320182212709803,-0.003103868,0.3390912213950481,0.001838157,0.023404467073314398,2.449620043,9.966147061690544,-0.233506386,-0.018053614,9.966147061690544,-0.233506386,-0.018053614,-103.6369243,38.60628944396973,-50.21483295,-60.37682285,-19.59441967,-17.5751977,-0.02123139,0.015263768437417965,2.653923674567955E-4,-92.55555556,45,1.5,1,14.029000282287598,0,0,149.39999389648438,-86.9110016,40.4279933,Classroom
84,6.52361150324634E-5,7.561458222730791E-5,3.73625022458654E-4,-0.002268837,-0.00167167,-2.56E-04,-0.94058678,0.011296970688385291,-0.003059827,0.33935160197100595,0.001911745,0.023330389,2.449065900543361,9.96176661,-0.233921421,-0.019464692,9.96176661,-0.233921421,-0.019464692,-103.5715318,38.58774520874024,-50.26070496,-60.31143093,-19.61259766,-17.62033764,-0.021314417,0.015346796224707538,5.263368258912804E-4,-98.11111111,45,1.5,1,14.029000282287598,0,0,149.39999389648438,-86.9110016,40.4279933,Classroom
85,-7.71E-05,-3.40E-04,-1.84E-04,-0.003010713,9.98490643732756E-5,-5.91E-04,-0.940565454,0.011296812453967275,-0.003090276,0.339410433,0.001855797,0.023350639286839846,2.448941365029048,9.955635005987963,-0.232466786,-0.019029329,9.955635005987963,-0.232466786,-0.019029329,-103.6045942,38.51844932556153,-50.25460506,-60.34534687,-19.68152761,-17.61435966,-0.021456751,0.014931657306343606,-3.11E-05,-106.125,0,1.5,1,13.468000411987305,0.008579775,0,149.39999389648438,-86.9110014,40.4279923,Classroom
86,8.89583386806319E-5,-3.11E-05,1.3640278597696893E-4,-0.016904461,-0.002163677,4.559352053600608E-5,-0.94063135,0.011398793,-0.003194602,0.3392234088726414,0.001724069,0.023613685,2.4493392902670554,9.925225036,-0.236967848,-0.017286982,9.925225036,-0.236967848,-0.017286982,-103.5429844,38.56175937652588,-50.26814678,-60.28276081,-19.63894962,-17.62838972,-0.021290695,0.015240046186643897,2.891145950608245E-4,-110.3333333,0,1.5,1,13.468000411987305,0.008579775,0,149.39999389648438,-86.9110014,40.4279923,Classroom
87,7.709722685654765E-5,-7.41E-06,1.779166773612638E-5,-0.011654798,-0.001893609,-5.55E-04,-0.940630368,0.011581103326481523,-0.003197716,0.33921992344763674,0.001841868,0.023958823,2.4493434683790483,9.902664749367723,-0.239296785,-0.018889941,9.902664749367723,-0.239296785,-0.018889941,-103.61716,38.524915313720705,-50.29230309,-60.35791283,-19.67640354,-17.65242365,-0.021302556,0.015263768428375998,1.7050347455949025E-4,-98.625,0,1.5,1,13.468000411987305,0.008579775,0,149.39999389648438,-86.9110014,40.4279923,Classroom
88,5.337500320837914E-5,4.003124732017807E-5,-2.97E-05,-0.001050088,-6.70E-04,-2.83E-04,-0.940651142,0.011721004,-0.003225552,0.33915725003168423,0.001882844,0.024241061,2.4494747097052416,9.903756539798477,-0.240652911,-0.018913172,9.903756539798477,-0.240652911,-0.018913172,-103.5891002,38.504175338745114,-50.2370372,-60.32912064,-19.69604565,-17.59654774,-0.021326278,0.015311212902798237,1.2305902556778448E-4,-100.2222222,0,1.5,1,13.468000411987305,0.008579775,0,149.39999389648438,-86.9110014,40.4279923,Classroom
89,0,2.349411806790158E-5,0,0.00178979,1.96913113960853E-4,2.566422873104994E-4,-0.940632259,0.011716674278991727,-0.003251574,0.3392095184670045,0.001832281,0.024250468221278146,2.449364174,9.908286603909094,-0.239996627,-0.017960689,9.908286603909094,-0.239996627,-0.017960689,-103.6199662,38.53528537750244,-50.31706882,-60.36035297,-19.66395966,-17.67657959,-0.021379653,0.015294675715267658,1.5271180410099288E-4,-93.5,0,1.5,1,13.468000411987305,0.008579775,0,149.39999389648438,-86.9110014,40.4279923,Classroom
90,7.709722685654765E-5,1.3492014078260626E-4,-7.71E-05,0.003501327,5.883211360394376E-4,-4.94E-04,-0.940585856,0.011722622556810818,-0.003250455,0.3393379455631219,0.001841738,0.024260638,2.449090925235193,9.913931726251992,-0.239755603,-0.018820247,9.913931726251992,-0.239755603,-0.018820247,-103.5600642,38.56334526062012,-50.33500309,-60.30020683,-19.63687567,-17.69451363,-0.021302556,0.015406101815474844,7.561457488070993E-5,-103.4444444,0,1.5,1,13.468000411987305,0.008579775,0,149.39999389648438,-86.9110014,40.4279923,Classroom
91,4.151389138429489E-5,4.3144792395200833E-4,6.52361150324634E-5,0.020784072505617604,9.178798464895453E-4,0.002289458,-0.940416717,0.011648120647929246,-0.003098019,0.33981040612007807,0.002090042,0.024015961214900017,2.4480844539346047,9.952286757311775,-0.237502168,-0.018541472,9.952286757311775,-0.237502168,-0.018541472,-103.56897,38.50466335296631,-50.28168888,-60.30960075,-19.69445971,-17.64229755,-0.02133814,0.01570263,2.1794791281386051E-4,-98.375,0,1.5,1,13.468000411987305,0.008579775,0,149.39999389648438,-86.9110014,40.4279923,Classroom
92,-1.01E-04,2.416701409830124E-4,4.151389138429489E-5,0.009771264,0.00254211,0.002488594,-0.94034592,0.011416033181605988,-0.003117328,0.340013961,0.001901009,0.023592099059119964,2.447656106022955,9.970006266843926,-0.232347725,-0.01652035,9.970006266843926,-0.232347725,-0.01652035,-103.5560378,38.52101127624512,-50.22569096,-60.29642494,-19.67896572,-17.58495771,-0.021480473,0.015512851835454552,1.9422569877278168E-4,-105.7777778,0,1.5,1,13.468000411987305,0.008579775,0,149.39999389648438,-86.9110014,40.4279923,Classroom
93,4.151389138429489E-5,2.2980902972405108E-4,-8.90E-05,5.150304257291034E-4,-9.57E-05,8.129326680910241E-4,-0.940272341,0.011335479,-0.003075824,0.3402204614819832,0.001929426,0.023411927401151472,2.4472174783354825,9.969557523727417,-0.233216805,-0.018728439,9.969557523727417,-0.233216805,-0.018728439,-103.5860501,38.48197147369385,-50.29632919,-60.32631474,-19.71666361,-17.65681559,-0.02133814,0.015500990664857684,6.375346079613398E-5,-99.75,0,1.5,1,13.468000411987305,0.008579775,0,149.39999389648438,-86.9110014,40.4279923,Classroom
94,-2.97E-05,2.2980903198454276E-4,-7.71E-05,-0.004747456,6.432024020593143E-4,7.184639898608032E-4,-0.940245116,0.011383158832933138,-0.003071469,0.3402941279040957,0.001971916,0.023498477305746772,2.447059816527135,9.960571622385562,-0.233669004,-0.018913172,9.960571622385562,-0.233669004,-0.018913172,-103.6071567,38.553585357666016,-50.2999892,-60.34681084,-19.64712357,-17.66047567,-0.021409306,0.015500991,7.5614574315587E-5,-100.2222222,0,1.5,1,13.468000411987305,0.008579775,0,149.39999389648438,-86.9110014,40.4279923,Classroom
95,7.709722685654765E-5,9.933680191961597E-5,5.930555912042127E-6,-0.001171353,-4.92E-04,9.133238164545263E-4,-0.940194686,0.011392383384111436,-0.003054351,0.3404332946226435,0.002013879,0.023503882,2.4467632562211414,9.957313454,-0.234557601,-0.019029329,9.957313454,-0.234557601,-0.019029329,-103.5490842,38.54101936340332,-50.31072502,-60.28934883,-19.66029968,-17.67133366,-0.021302556,0.015370518475481607,1.5864236499589767E-4,-114.25,0,1.5,1,13.468000411987305,0.008579775,0,149.39999389648438,-86.9110014,40.4279923,Classroom
96,5.930555912042127E-6,6.375346927297781E-5,1.779166773612638E-5,-0.015978591,-0.001995793,0.001306894,-0.940236544,0.011473505088643542,-0.003118163,0.34031436454902575,0.001946111,0.023700143,2.4470160192656287,9.929284734633363,-0.237551534,-0.018309159,9.929284734633363,-0.237551534,-0.018309159,-103.6263103,38.549559364318846,-50.16359283,-60.36645287,-19.64907568,-17.52322563,-0.021373723,0.015334935090278537,1.7050348077584239E-4,-114.8888889,0,1.5,1,13.468000411987305,0.008579775,0,149.39999389648438,-86.9110014,40.4279923,Classroom
97,-2.97E-05,1.705034785153507E-4,-8.90E-05,-0.010902247,-0.001003848,-1.99E-05,-0.94033459,0.011663907,-0.003204138,0.34003608492971626,0.001906927,0.024117334049592896,2.4476062094123616,9.906915997995913,-0.2401999,-0.018959635,9.906915997995913,-0.2401999,-0.018959635,-103.5948345,38.50075935,-50.17859909,-60.33387878,-19.69933966,-17.53810968,-0.021409306,0.015441685110258245,6.375347209859242E-5,-92.33333333,0,1.5,1,13.468000411987305,0.008579775,0,149.39999389648438,-86.9110014,40.4279923,Classroom
98,4.698825068771839E-5,5.873529321084229E-5,8.222944094226338E-5,-0.00190446,-9.69E-04,6.728385073634294E-4,-0.940307838,0.011735167739411386,-0.003160722,0.34010798226182276,0.002038937,0.024221667,2.4474510825597324,9.906221926790996,-0.240809721,-0.019517186,9.906221926790996,-0.240809721,-0.019517186,-103.640462,38.53321132659912,-50.21727306,-60.38121479,-19.66652168,-17.57775974,-0.021332665,0.015329916952536084,2.3494124056574388E-4,-104.875,0,1.5,1,13.468000411987305,0.008579775,0,149.39999389648438,-86.9110014,40.4279923,Classroom
99,-1.01E-04,5.189235970938524E-5,-6.52E-05,0.002061085,5.067623066670686E-4,-2.86E-04,-0.94032016,0.011750727313236125,-0.003209544,0.3400729420115647,0.001956785,0.024284233438592512,2.4475262952082364,9.910981391240092,-0.240054704,-0.019749499,9.910981391240092,-0.240054704,-0.019749499,-103.6302145,38.507713317871094,-50.27485703,-60.36999069,-19.69165367,-17.63375767,-0.021480473,0.015323074,8.747568953040879E-5,-109,0,1.5,1,13.468000411987305,0.008579775,0,149.39999389648438,-86.9110014,40.4279923,Classroom
100,1.779166773612638E-5,6.375346305662567E-5,-5.93E-06,0.001912478,6.389017533330084E-4,-7.91E-05,-0.940211799,0.011718309140827471,-0.003096469,0.34037457276316524,0.002155179,0.024145640107323823,2.446882993272207,9.914489302,-0.238634692,-0.021515077,9.914489302,-0.238634692,-0.021515077,-103.6447322,38.54382556915283,-50.21227112,-60.38511894,-19.65590754,-17.5712937,-0.021361862,0.015334935099320504,1.467812469554613E-4,-111.125,45,1.5,1,1600,0,0,149.39999389648438,-86.9080931,40.4347685,Classroom
101,1.779166773612638E-5,1.7050346099654014E-4,1.482638932800698E-4,0.014036632278590526,6.024775285165286E-4,9.290373983603079E-4,-0.940206091,0.011657908576929454,-0.003131607,0.34039209681807214,0.002048396,0.024055938914562893,2.4468475267725083,9.937081781405848,-0.238024872,-0.019470723,9.937081781405848,-0.238024872,-0.019470723,-103.5373723,38.52393943786621,-50.24935905,-60.27800308,-19.67652571,-17.60996775,-0.021361862,0.015441685110258245,3.009757012336795E-4,-98.44444444,45,1.5,1,1600,0,0,149.39999389648438,-86.9080931,40.4347685,Classroom
102,1.0081945050471616E-4,1.6309019151026186E-5,1.6012500962513744E-4,0.011664455376782464,9.507934734659288E-4,0.0011721,-0.940082455,0.011455136369371299,-0.003033293,0.340741163,0.00210396,0.023606872782834524,2.4461066583985263,9.965203294,-0.233981818,-0.019602739,9.965203294,-0.233981818,-0.019602739,-103.6420482,38.47282131195068,-50.21922497,-60.38170277,-19.72642374,-17.58007774,-0.021278834,0.015287491,3.12836818708993E-4,-98.75,45,1.5,1,1600,0,0,149.39999389648438,-86.9080931,40.4347685,Classroom
103,-6.52E-05,9.933680135449304E-5,-8.90E-05,-9.83E-04,-6.26E-05,-5.45E-04,-0.940080389,0.011374643461290494,-0.003058202,0.3407493589572536,0.002002444,0.023472472717895092,2.4460911797088327,9.959081881254622,-0.233692237,-0.020818138,9.959081881254622,-0.233692237,-0.020818138,-103.5932478,38.49831935882568,-50.19214108,-60.33363487,-19.70141357,-17.55335976,-0.021444889,0.015370518457397673,6.375346305662567E-5,-98.11111111,45,1.5,1,1600,0,0,149.39999389648438,-86.9080931,40.4347685,Classroom
104,-4.15E-05,2.5353125506758834E-4,4.151389138429489E-5,-0.003488448,-5.52E-04,5.705745583309711E-4,-0.940086935,0.011492621750362869,-0.00302659,0.34072762727737427,0.002141792,0.023672821271477393,2.446134657535738,9.949260897,-0.236021173,-0.020934294,9.949260897,-0.236021173,-0.020934294,-103.5861722,38.524915313720705,-50.17835506,-60.32594868,-19.67542763,-17.53871969,-0.021421167,0.015524712879463885,1.9422569199130661E-4,-100.375,45,1.5,1,1600,0,0,149.39999389648438,-86.9080931,40.4347685,Classroom
105,-1.13E-04,2.2980902746355938E-4,-1.78E-05,0.003724033,0.001344684,0.001480559,-0.940028147,0.011427577901450754,-0.002966935,0.3408924645011865,0.002213746,0.023509461414611455,2.4457839391763927,9.95971201,-0.232606172,-0.020469668,9.95971201,-0.232606172,-0.020469668,-103.5937363,38.53967735290527,-50.29303505,-60.3336348,-19.65859165,-17.65510761,-0.021492334,0.015500990682941617,1.349201289150249E-4,-113.4444444,45,1.5,1,1600,0,0,149.39999389648438,-86.9080931,40.4347685,Classroom
106,-8.90E-05,4.447904501327323E-6,-2.79E-04,-0.006347166,-1.56E-04,6.845097048479376E-4,-0.940091492,0.011468473044269293,-0.003041311,0.34071571734345074,0.002097335,0.023637468971818395,2.4461607215473955,9.945320259020166,-0.235475238,-0.020283818,9.945320259020166,-0.235475238,-0.020283818,-103.4933302,38.544557113647464,-50.20946484,-60.23310715,-19.65505373,-17.56885361,-0.021468612,0.015275629571846966,-1.26E-04,-103.625,45,1.5,1,1600,0,0,149.39999389648438,-86.9080931,40.4347685,Classroom
107,1.2921768939122558E-4,1.40964738070929E-4,-2.35E-05,0.004236515,0.001572785,0.001001091,-0.940090089,0.011424284,-0.003054613,0.34072095384964574,0.002042324,0.02356343,2.4461506490523997,9.955541971817757,-0.232777503,-0.019401029,9.955541971817757,-0.232777503,-0.019401029,-103.5812923,38.56005142211914,-50.24618698,-60.32119106,-19.64041363,-17.60581978,-0.021250436,0.015412146377807053,1.292176670036637E-4,-103.8888889,45,1.5,1,1600,0,0,149.39999389648438,-86.9080931,40.4347685,Classroom
108,-2.67E-04,2.4167013476666027E-4,-2.79E-04,0.001160177,7.255715363233993E-4,0.001179297,-0.940108929,0.011382598493212057,-0.003095345,0.34066998524573244,0.001936028,0.023512904740218978,2.4462606235615256,9.957156597989277,-0.233291497,-0.018169771,9.957156597989277,-0.233291497,-0.018169771,-103.5956883,38.51588745117188,-50.26375507,-60.33534283,-19.68384579,-17.62363171,-0.021646529,0.015512851790244718,-1.26E-04,-119.125,45,1.5,1,1600,0,0,149.39999389648438,-86.9080931,40.4347685,Classroom
109,-5.34E-05,3.246979192306188E-4,1.779166773612638E-5,-6.55E-04,2.8565988957303243E-4,4.4481593717649146E-4,-0.94002525,0.011408435063237705,-0.002969509,0.34090104178317543,0.002196066,0.02347518,2.445766080930395,9.955571054254921,-0.233355383,-0.021491845,9.955571054254921,-0.233355383,-0.021491845,-103.6033738,38.54699729919434,-50.2615591,-60.34339485,-19.65456558,-17.62192368,-0.021433028,0.015595879559450358,1.705034683431381E-4,-105.3333333,45,1.5,1,1600,0,0,149.39999389648438,-86.9080931,40.4347685,Classroom
110,2.668750160418957E-4,0.001190559,0.001749514,-4.16E-04,0.001062645,-3.48E-04,-0.939604335,0.011055141479427953,-0.00250601,0.3420733870233147,0.002854076,0.022490913825995714,2.443268565298284,9.956023984742396,-0.222790954,-0.028832932,9.956023984742396,-0.222790954,-0.028832932,-103.6408282,38.45635143280029,-50.16957123,-60.38036064,-19.74521172,-17.53005774,-0.021112779,0.016461741,0.001902226,-103.875,45,1.5,1,13.13599967956543,0,0,149.39999389648438,-86.9110021,40.4279936,Classroom
111,-7.71E-05,-8.26E-04,-0.001251347,-0.016016803,-0.002782969,0.001674453,-0.939636119,0.011062837,-0.002547057,0.3419864267400167,0.002780519,0.022533966409205235,2.4434544044790916,9.927173605242979,-0.226746081,-0.026045178,9.927173605242979,-0.226746081,-0.026045178,-103.5883683,38.45525341033935,-50.24289295,-60.32851097,-19.74386972,-17.60301371,-0.021456751,0.014445351726077135,-0.001098635,-102.7777778,45,1.5,1,13.13599967956543,0,0,149.39999389648438,-86.9110021,40.4279936,Classroom
112,-7.71E-05,-1.93E-05,-4.45E-04,-0.012377785,-0.001145198,0.001451602,-0.940081827,0.0115379,-0.003003864,0.3407403123610228,0.002215684,0.023742432,2.446106389888282,9.900487817250765,-0.236391895,-0.020615087,9.900487817250765,-0.236391895,-0.020615087,-103.6126461,38.53662727355957,-50.23996506,-60.35266678,-19.66286161,-17.59923166,-0.021456751,0.015251907339156831,-2.92E-04,-112.25,45,1.5,1,13.13599967956543,0,0,149.39999389648438,-86.9110021,40.4279936,Classroom
113,-1.78E-05,-7.86E-05,-1.60E-04,-0.001113855,4.3151592745364294E-5,5.49546090289227E-4,-0.940220649,0.011678996089014035,-0.003149326,0.3403510092531593,0.002028382,0.024107751047726975,2.4469348967654034,9.901433435458582,-0.238756657,-0.019424261,9.901433435458582,-0.238756657,-0.019424261,-103.5925161,38.53333328,-50.28583691,-60.33241474,-19.66530161,-17.64546965,-0.021397445,0.015192601757431493,-7.41E-06,-100.2222222,45,1.5,1,13.13599967956543,0,0,149.39999389648438,-86.9110021,40.4279936,Classroom
114,-1.36E-04,1.9422570046815043E-4,-1.36E-04,0.003016518,8.709623107632387E-4,-1.70E-04,-0.940228239,0.011724129861708983,-0.003144396,0.34032853569799254,0.002067818,0.024189324760176604,2.4469817795799775,9.908426016279794,-0.238524344,-0.020934294,9.908426016279794,-0.238524344,-0.020934294,-103.6039842,38.56517536,-50.22898521,-60.34400478,-19.63626562,-17.58886166,-0.021516056,0.015465407,1.6309023672009556E-5,-109.8888889,45,1.5,1,13.13599967956543,0,0,149.39999389648438,-86.9110021,40.4279936,Classroom
115,-7.71E-05,-1.38E-04,-5.34E-05,0.00233903,-4.63E-04,9.535590313302661E-4,-0.940239605,0.011711883512370794,-0.003164534,0.34029735928600274,0.002020791,0.024180067,2.447048726591092,9.912026784952404,-0.240060512,-0.019122254,9.912026784952404,-0.240060512,-0.019122254,-103.576534,38.51515537261963,-50.21153912,-60.31679871,-19.68591972,-17.57165972,-0.021456751,0.015133296193790089,9.933680587547642E-5,-108.25,45,1.5,1,13.13599967956543,0,0,149.39999389648438,-86.9110021,40.4279936,Classroom
116,-5.87E-05,-2.35E-05,-1.53E-04,0.017905107,0.00336499,-1.59E-05,-0.940289484,0.011642981741505746,-0.003258128,0.3401609690716633,0.001794312,0.024114461,2.4473419785499573,9.943981513236333,-0.235806283,-0.017844533,9.943981513236333,-0.235806283,-0.017844533,-103.59825,38.52759933,-50.21068493,-60.33851509,-19.67249973,-17.57104965,-0.021438389,0.015247687554130187,-9.51E-12,-121.6666667,45,1.5,1,13.13599967956543,0,0,149.39999389648438,-86.9110021,40.4279936,Classroom
117,-5.93E-06,6.375345514490477E-5,-1.01E-04,0.012218086464891156,0.00171791,-4.59E-04,-0.94011885,0.011364821,-0.003115359,0.34064301240791395,0.001885585,0.023493172130683092,2.4463187213082915,9.969451654304578,-0.232112509,-0.019308104,9.969451654304578,-0.232112509,-0.019308104,-103.5581119,38.51954727172851,-50.261315,-60.29825489,-19.68079569,-17.62070356,-0.021385584,0.015334935126446405,5.189235462327895E-5,-117.625,45,1.5,1,13.13599967956543,0,0,149.39999389648438,-86.9110021,40.4279936,Classroom
118,-1.13E-04,2.535312465907445E-4,-1.01E-04,0.001029052,7.411742094651009E-4,0.001606899,-0.94010381,0.011367782435009202,-0.003093304,0.34068463815068734,0.001930133,0.023483628,2.4462296870148297,9.968185563689296,-0.233242129,-0.017705145,9.968185563689296,-0.233242129,-0.017705145,-103.6209418,38.54358142852783,-50.18750504,-60.36071903,-19.65480961,-17.54738169,-0.021492334,0.015524712852337986,5.189234388594344E-5,-124.4444444,45,1.5,1,13.13599967956543,0,0,149.39999389648438,-86.9110021,40.4279936,Classroom
119,5.930555912042127E-6,5.619201579727956E-4,1.8384723553379763E-4,-0.001195574,6.634009983933088E-4,0.00131298,-0.940023862,0.011297899732384289,-0.003005838,0.3409081567259668,0.00205248,0.023292079,2.4457536484431293,9.964776400223519,-0.231372011,-0.019215179,9.964776400223519,-0.231372011,-0.019215179,-103.6233826,38.55004749298096,-50.2796151,-60.36328091,-19.64956367,-17.63802765,-0.021373723,0.015833101768806142,3.36559038401301E-4,-99.5,45,1.5,1,13.13599967956543,0,0,149.39999389648438,-86.9110021,40.4279936,Classroom
120,-2.97E-05,5.1892341625451754E-5,1.1268056006830873E-4,-0.001751353,7.355127809117141E-4,6.356745126467306E-4,-0.93992223,0.011202946965338535,-0.002896799,0.3411924465767388,0.002199771,0.023038554791975946,2.4451483407066865,9.961024580649958,-0.228709125,-0.021352457,9.961024580649958,-0.228709125,-0.021352457,-103.6202105,38.50344341278076,-50.18677303,-60.36035267,-19.69519159,-17.54786974,-0.021409306,0.015323073964891503,2.6539235784970585E-4,-111.5555556,45,1.5,1,12.859000205993652,0.11177685856819153,209.5039520263672,149.39999389648438,-86.9110103,40.4279826,Classroom
121,2.9652779560210635E-5,3.1283681023214915E-4,-2.97E-05,-0.017717389,-0.003521613,0.002654052,-0.939969567,0.011297129166936412,-0.002930267,0.34105861129112613,0.002197811,0.023238789398693345,2.4454320935369696,9.93093873,-0.234677806,-0.019326645,9.93093873,-0.234677806,-0.019326645,-103.6066687,38.51796127319336,-50.16603306,-60.34644489,-19.68201555,-17.52712971,-0.021350001,0.015584018,1.230590233072928E-4,-110.25,45,1.5,1,12.859000205993652,0.11177685856819153,209.5039520263672,149.39999389648438,-86.9110103,40.4279826,Classroom
122,-1.78E-05,6.375345514490477E-5,-2.91E-04,-0.012443857,-0.001455563,-2.92E-04,-0.940123978,0.011538170648792994,-0.0030627,0.3406234617950847,0.002102264,0.023783307,2.4463561183040583,9.904250089404652,-0.23723791,-0.021003988,9.904250089404652,-0.23723791,-0.021003988,-103.6394865,38.49099956512451,-50.26229111,-60.37926296,-19.70934355,-17.62265562,-0.021397445,0.015334935126446405,-1.38E-04,-115.8888889,45,1.5,1,12.859000205993652,0.11177685856819153,209.5039520263672,149.39999389648438,-86.9110103,40.4279826,Classroom
123,5.337500320837914E-5,2.179479201604585E-4,1.779166773612638E-5,-0.00174827,5.930932690796343E-4,0.001630682,-0.940166772,0.011633329319505437,-0.003089679,0.3405019105638115,0.00211332,0.023980915998515574,2.4466135177797486,9.904314097,-0.236863307,-0.019401029,9.904314097,-0.236863307,-0.019401029,-103.6072783,38.51930339813232,-50.34195683,-60.34693295,-19.68128359,-17.70207769,-0.021326279,0.01548913,1.7050346721289228E-4,-101.5555556,45,1.5,1,12.859000205993652,0.11177685856819153,209.5039520263672,149.39999389648438,-86.9110103,40.4279826,Classroom
124,7.709722685654765E-5,-7.41E-06,1.779166773612638E-5,0.001646866,3.295304995138668E-4,-8.73E-04,-0.940179045,0.011619752,-0.003111526,0.340468294,0.002062124,0.023970336,2.4466857308322942,9.909169382261998,-0.237113043,-0.02158477,9.909169382261998,-0.237113043,-0.02158477,-103.6182579,38.50868953704834,-50.20580494,-60.35815689,-19.6903117,-17.56616955,-0.021302556,0.015263768491669766,1.7050346890826103E-4,-106.75,45,1.5,1,12.859000205993652,0.11177685856819153,209.5039520263672,149.39999389648438,-86.9110103,40.4279826,Classroom
125,3.5241188015788794E-5,1.2921767204086512E-4,1.5271181473508477E-4,0.001818666,-9.14E-04,0.001267317,-0.940175017,0.011635442022592403,-0.003100487,0.34047896329026955,0.002093847,0.023992299030606564,2.4466625176943264,9.911936750689756,-0.238655019,-0.019493954,9.911936750689756,-0.238655019,-0.019493954,-103.6108161,38.50576141357422,-50.17591522,-60.35022678,-19.69360573,-17.5359137,-0.021344412,0.015400399328567661,3.0542361156012E-4,-93.44444444,45,1.5,1,12.859000205993652,0.11177685856819153,209.5039520263672,149.39999389648438,-86.9110103,40.4279826,Classroom
126,-1.84E-04,9.933679400789506E-5,-4.21E-04,0.015618416869524613,0.002147888,-5.82E-04,-0.940183566,0.011643499823160541,-0.003109668,0.3404549967895434,0.002081457,0.024013754541000115,2.4467135424752837,9.937171723078755,-0.236067635,-0.021305995,9.937171723078755,-0.236067635,-0.021305995,-103.5801939,38.55602523803711,-50.25960697,-60.32070286,-19.64614759,-17.61899561,-0.021563501,0.015370518403145874,-2.68E-04,-106.75,45,1.5,1,12.859000205993652,0.11177685856819153,209.5039520263672,149.39999389648438,-86.9110103,40.4279826,Classroom
127,-2.91E-04,1.9422568747032325E-4,-5.52E-04,0.014477674243519607,0.003175025,0.001326111,-0.940160611,0.011581425211455637,-0.003098974,0.3405205746298855,0.002060938,0.023889582079735773,2.446574951838521,9.968513628,-0.234545985,-0.019261642,9.968513628,-0.234545985,-0.019261642,-103.6287504,38.51100730895996,-50.21373493,-60.36877094,-19.68884779,-17.57361166,-0.021670251,0.015465407351990349,-3.99E-04,-105.4444444,45,1.5,1,12.859000205993652,0.11177685856819153,209.5039520263672,149.39999389648438,-86.9110103,40.4279826,Classroom
128,0.001298792,3.9586458904487847E-4,4.151389138429489E-5,0.001531082,0.002391731,0.002345542,-0.940093325,0.011488110215846196,-0.003037124,0.34070997938369085,0.00211843,0.023671545956319977,2.4461724804443064,9.969048027853363,-0.233512193,-0.018843478,9.969048027853363,-0.233512193,-0.018843478,-103.5930039,38.598725166320804,-50.26704899,-60.33241497,-19.60015368,-17.6268037,-0.020080862,0.015667046221352898,1.9422568973081493E-4,-101,45,1.5,1,12.859000205993652,0.11177685856819153,209.5039520263672,149.39999389648438,-86.9110103,40.4279826,Classroom
129,0.001583458,-1.85E-04,-7.71E-05,-5.43E-04,-0.002268295,5.989219016820481E-4,-0.940118825,0.011511416075009745,-0.003064705,0.3406386034002582,0.002080662,0.023734325,2.446324452613164,9.967517649085776,-0.238808927,-0.020214124,9.967517649085776,-0.238808927,-0.020214124,-103.5433502,38.651673316955566,-50.20946507,-60.28337116,-19.5472057,-17.5705616,-0.019796195,0.015085851728409818,7.561457714120161E-5,-113.8888889,45,1.5,1,12.859000205993652,0.11177685856819153,209.5039520263672,149.39999389648438,-86.9110103,40.4279826,Classroom
130,1.7198612370971337E-4,3.246979164050042E-4,2.0756945692147446E-4,-0.003244743,2.937423951417497E-5,-1.02E-04,-0.940071665,0.011511013,-0.002998927,0.34076930712727665,0.002207391,0.023688428248595267,2.4460450839070442,9.95952034,-0.236066909,-0.02213361,9.95952034,-0.236066909,-0.02213361,-103.5154122,38.711208992004394,-50.23740322,-60.25506706,-19.48754765,-17.5986216,-0.021207667,0.015595879586576258,3.6028125018188823E-4,-115.875,45,1.5,1,13.368000030517578,0.12034286558628082,18.28462791442871,149.39999389648438,-86.9110057,40.4279931,Classroom
131,6.52361150324634E-5,-3.11E-05,1.719861214492217E-4,-0.015462181,-0.001877999,8.964132409072617E-4,-0.940113476,0.011529402725977226,-0.003051011,0.34065289549457217,0.002119044,0.023758794298594437,2.4462934512536503,9.933437384448006,-0.238094565,-0.01977273,9.933437384448006,-0.238094565,-0.01977273,-103.5052853,38.69010303497314,-50.35037498,-60.24481892,-19.50804373,-17.70988567,-0.021314417,0.015240046213769797,3.2469791470963544E-4,-108.2222222,45,1.5,1,13.368000030517578,0.12034286558628082,18.28462791442871,149.39999389648438,-86.9110057,40.4279931,Classroom
132,-5.93E-06,2.8911458149787436E-4,2.0756944561901603E-4,-0.013495029,-0.002198116,0.001194394,-0.940077327,0.011576909391046728,-0.002984144,0.3407514778155725,0.002279627,0.023802276,2.446081492507342,9.906834593096983,-0.238303647,-0.022165553,9.906834593096983,-0.238303647,-0.022165553,-103.499186,38.70669548034668,-50.34793499,-60.23945103,-19.49352564,-17.70903164,-0.021385584,0.015560296201373188,3.602812631797154E-4,-96.55555556,45,1.5,1,13.368000030517578,0.12034286558628082,18.28462791442871,149.39999389648438,-86.9110057,40.4279931,Classroom
133,-1.78E-05,-1.02E-04,-1.01E-04,-0.002390056,0.00112762,-0.002086589,-0.940134754,0.011691804360417486,-0.003024744,0.34058884422755936,0.002277501,0.024046434143793236,2.446426194848366,9.90465954,-0.23746732,-0.024372525,9.90465954,-0.23746732,-0.024372525,-103.5428621,38.67521934509277,-50.34647102,-60.28288307,-19.52634363,-17.7075676,-0.021397445,0.015168879524741358,5.1892349537172654E-5,-90.75,45,1.5,1,13.368000030517578,0.12034286558628082,18.28462791442871,149.39999389648438,-86.9110057,40.4279931,Classroom
134,4.698825068771839E-5,4.698823445673602E-5,-1.34E-11,0.003021314,-1.71E-04,6.204389501363039E-4,-0.940142476,0.011745930935900945,-0.003016885,0.340565736,0.002328577,0.024142928,2.446474171601809,9.911524402285085,-0.23895993,-0.022723104,9.911524402285085,-0.23895993,-0.022723104,-103.5316383,38.67046123504639,-50.32731689,-60.27202492,-19.52988176,-17.68841358,-0.021332665,0.015318169894341666,1.5271179346690097E-4,-104.8888889,45,1.5,1,13.368000030517578,0.12034286558628082,18.28462791442871,149.39999389648438,-86.9110057,40.4279931,Classroom
135,6.52361150324634E-5,-9.04E-05,-8.90E-05,5.130582642786712E-4,-2.80E-04,0.001460921,-0.940162837,0.011720976548142803,-0.003053949,0.3405100891312349,0.002240457,0.024121382716789985,2.4465937776472964,9.91193676,-0.23931711,-0.020818138,9.91193676,-0.23931711,-0.020818138,-103.504554,38.669119377136234,-50.34012714,-60.24420898,-19.53073574,-17.7012237,-0.021314417,0.015180740677254292,6.37534585356423E-5,-99.5,45,1.5,1,13.368000030517578,0.12034286558628082,18.28462791442871,149.39999389648438,-86.9110057,40.4279931,Classroom
136,-6.11E-04,9.933679570326383E-5,-0.002378153,0.018439015138496474,9.461220317673914E-4,-1.20E-04,-0.940309742,0.012006737129057496,-0.003161802,0.34009260488945303,0.002220935,0.024733230525862824,2.4474785281616507,9.943508102,-0.244538343,-0.022235246,9.943508102,-0.244538343,-0.022235246,-103.5636019,38.748175086975095,-50.29242508,-60.30325684,-19.45216764,-17.6523016,-0.021990501,0.015370518448355706,-0.002225441,-100,45,1.5,1,13.368000030517578,0.12034286558628082,18.28462791442871,149.39999389648438,-86.9110057,40.4279931,Classroom
137,-2.43E-04,5.026145915057763E-4,1.2454167641337636E-4,0.011801886327058366,0.002581382,0.001311469,-0.940518125,0.012580488464858347,-0.003257146,0.339494711,0.002415958,0.025878754923644574,2.448741091107859,9.968653095578684,-0.255134713,-0.022816029,9.968653095578684,-0.255134713,-0.022816029,-103.4929639,38.77367321014404,-50.28156715,-60.23298504,-19.42605959,-17.64193153,-0.021622807,0.015773796214206704,2.772534691086672E-4,-109,45,1.5,1,13.368000030517578,0.12034286558628082,18.28462791442871,149.39999389648438,-86.9110057,40.4279931,Classroom
138,-1.78E-05,-9.04E-05,2.9652779560210635E-5,0.001025663,4.2470768817420146E-4,-5.28E-05,-0.940464736,0.012416401706201938,-0.003238223,0.33964894523898376,0.002344333,0.025556863,2.4484159576082694,9.968031642506423,-0.254339041,-0.023489736,9.968031642506423,-0.254339041,-0.023489736,-103.497356,38.768671379089355,-50.28437298,-60.23652306,-19.43081755,-17.64412762,-0.021397445,0.015180740668212326,1.8236458186259114E-4,-104.5555556,45,1.5,1,13.368000030517578,0.12034286558628082,18.28462791442871,149.39999389648438,-86.9110057,40.4279931,Classroom
139,2.0756945918196614E-4,4.4478971547293435E-6,-1.96E-04,-0.001390624,3.679360000832567E-4,0.001929364,-0.940576191,0.0124727,-0.003377323,0.3393367008098121,0.002112289,0.025757978,2.4490818630144435,9.963397228,-0.256736638,-0.019303637,9.963397228,-0.256736638,-0.019303637,-103.536274,38.79063125610352,-50.36977306,-60.27678291,-19.41019949,-17.73050367,-0.021172084,0.015275629544721066,-4.30E-05,-104.25,45,1.5,1,13.368000030517578,0.12034286558628082,18.28462791442871,149.39999389648438,-86.9110057,40.4279931,Classroom
140,1.0081945050471616E-4,2.8911458375836607E-4,0.002105347,-0.001574109,3.6396592566110555E-5,-2.57E-05,-0.940084069,0.011673941,-0.003058227,0.34072850745858496,0.00220563,0.024035274,2.446129930829539,9.961428198,-0.238776984,-0.021863546,9.961428198,-0.238776984,-0.021863546,-103.4766161,38.70815921783447,-50.36965115,-60.21639297,-19.49181772,-17.7302597,-0.021278834,0.015560296201373188,0.002258059,-108,0,1.5,1,13.420000076293945,0.017803261056542397,0,149.39999389648438,-86.9110079,40.4279928,Classroom
141,1.482638978010532E-4,2.817013097511044E-5,1.1268056232880041E-4,-0.0170058,-0.002447553,9.750377531479864E-4,-0.939987618,0.011494627186250918,-0.003052484,0.3410011998658041,0.002101351,0.023693628645348318,2.4455529879597786,9.931323255150064,-0.23818749,-0.019888886,9.931323255150064,-0.23818749,-0.019888886,-103.5218777,38.67802520751953,-50.22654533,-60.26141106,-19.52256172,-17.58581163,-0.02123139,0.015299351750285302,2.653923691521643E-4,-96.44444444,0,1.5,1,13.420000076293945,0.017803261056542397,0,149.39999389648438,-86.9110079,40.4279928,Classroom
142,4.151389138429489E-5,-4.30E-05,7.709722685654765E-5,-0.01235973,-0.001260418,-1.10E-04,-0.940070333,0.01175777,-0.003130875,0.34076340684612977,0.002127365,0.024242406403555454,2.446055634507855,9.906091264150675,-0.241364369,-0.02158477,9.906091264150675,-0.241364369,-0.02158477,-103.491622,38.66497112,-50.33207512,-60.23176495,-19.53500565,-17.69280567,-0.02133814,0.015228185142634564,2.2980901503085512E-4,-97.75,0,1.5,1,13.420000076293945,0.017803261056542397,0,149.39999389648438,-86.9110079,40.4279928,Classroom
143,-1.60E-04,3.009756955824503E-4,6.523612181393845E-5,-0.002797442,4.428986785481277E-5,-5.39E-04,-0.940056288,0.011764620466935403,-0.003186718,0.3408013857105403,0.002027999,0.024293263072093712,2.445975778172317,9.903570665896517,-0.240554176,-0.020841369,9.903570665896517,-0.240554176,-0.020841369,-103.5171198,38.698033294677735,-50.3901469,-60.25701904,-19.50121168,-17.75075556,-0.021539779,0.015572157326760223,2.1794791507435222E-4,-88.77777778,0,1.5,1,13.420000076293945,0.017803261056542397,0,149.39999389648438,-86.9110079,40.4279928,Classroom
144,5.873531335964799E-5,-2.11E-04,-1.06E-04,9.073294126070463E-4,-4.39E-05,0.003119002,-0.940036112,0.011800698094213238,-0.003225073,0.34085539642434853,0.001981863,0.024387117,2.4458609429689555,9.907034994329063,-0.241910303,-0.016334499,9.907034994329063,-0.241910303,-0.016334499,-103.4710036,38.6755851,-50.37697083,-60.21090305,-19.52426964,-17.73587162,-0.021320918,0.015059734497649165,4.698823725518126E-5,-46.875,0,1.5,1,13.420000076293945,0.017803261056542397,0,149.39999389648438,-86.9110079,40.4279928,Classroom
145,2.9652786341685695E-5,1.942256863400774E-4,-0.002105347,0.002360992,-7.66E-05,-5.34E-04,-0.940125275,0.012169415312050616,-0.003365433,0.34059447541977594,0.001962045,0.025176733858811046,2.446411769366959,9.912352006412247,-0.249605667,-0.020051505,9.912352006412247,-0.249605667,-0.020051505,-103.4928418,38.699863243103025,-50.33841885,-60.23274086,-19.49974773,-17.69890553,-0.021350001,0.015465407,-0.001952636,-48.55555556,0,1.5,1,13.420000076293945,0.017803261056542397,0,149.39999389648438,-86.9110079,40.4279928,Classroom
146,2.4315279239372722E-4,-7.86E-05,2.9059723516908085E-4,0.014343770962317013,-7.04E-04,-8.00E-04,-0.940148862,0.012714885943795292,-0.003368123,0.34050975175737175,0.002326689,0.026204453726995338,2.446581451638231,9.935612354463744,-0.260762493,-0.023954362,9.935612354463744,-0.260762493,-0.023954362,-103.523098,38.79197308,-50.32243713,-60.26299694,-19.40800369,-17.68206972,-0.021136501,0.015192601703179693,4.433090318202321E-4,-24.625,0,1.5,1,13.420000076293945,0.017803261056542397,0,149.39999389648438,-86.9110079,40.4279928,Classroom
147,1.2454167415288468E-4,-9.04E-05,-5.93E-06,0.015374035511202025,0.001647043,-0.001172747,-0.94003066,0.012416359290335943,-0.003381793,0.34084700612188545,0.002106822,0.025651663,2.445870149482801,9.967837129981772,-0.25368566,-0.022212015,9.967837129981772,-0.25368566,-0.022212015,-103.5460334,38.79380325317383,-50.31328709,-60.28593277,-19.4062956,-17.67182156,-0.021255112,0.015180740632044458,1.4678123056689657E-4,-32.44444444,0,1.5,1,13.420000076293945,0.017803261056542397,0,149.39999389648438,-86.9110079,40.4279928,Classroom
148,1.1268057137076716E-4,2.8170117412160323E-5,2.3129166926718454E-4,0.004655338,-0.002469632,-1.28E-04,-0.939899761,0.012342122808388136,-0.00328872,0.34121134587861957,0.002241066,0.025447733356680685,2.445094312,9.971864085931044,-0.256239094,-0.022846855,9.971864085931044,-0.256239094,-0.022846855,-103.5232201,38.83845509,-50.28620308,-60.26311886,-19.36164358,-17.64607956,-0.021266973,0.015299352,3.840034975652194E-4,-23.875,0,1.5,1,13.420000076293945,0.017803261056542397,0,149.39999389648438,-86.9110079,40.4279928,Classroom
149,2.4315279691471058E-4,-5.49E-05,1.601250186671042E-4,-0.003258001,6.234022309479204E-4,-0.00144929,-0.939855831,0.012332569183872162,-0.003311644,0.3413325383246524,0.002194785,0.025445132561534353,2.4448370424289148,9.964053339171178,-0.253070032,-0.022955416,9.964053339171178,-0.253070032,-0.022955416,-103.4938177,38.80905319213867,-50.37733707,-60.23396091,-19.39019169,-17.73648163,-0.021136501,0.015216323917785895,3.1283681588337837E-4,-70.11111111,0,1.5,1,13.420000076293945,0.017803261056542397,0,149.39999389648438,-86.9110079,40.4279928,Classroom
150,2.7873612786598E-4,1.8236457903697653E-4,4.80375031135904E-4,-0.001920043,-8.06E-04,4.581821702637719E-4,-0.939742737,0.012344505538422507,-0.003229294,0.3416441705041719,0.002366193,0.025410579897246315,2.444171838390017,9.961195890185902,-0.253859897,-0.023327117,9.961195890185902,-0.253859897,-0.023327117,-103.5362739,38.77050102233887,-50.41125294,-60.2760508,-19.42959757,-17.77125164,-0.021100917,0.015453546,6.330868272219324E-4,-73.77777778,0,1.5,1,13.310999870300293,0.029012188,0,149.39999389648438,-86.9110047,40.4279917,Classroom
151,3.6176392193702816E-4,3.602812439655361E-4,5.396805857353419E-4,-0.016150836,-9.84E-04,-0.002062348,-0.939487718,0.012170196040669113,-0.003005874,0.34235297881283805,0.002685833,0.024928155,2.4426617460343443,9.934781861536711,-0.249434336,-0.028902626,9.934781861536711,-0.249434336,-0.028902626,-103.527734,38.82857318878174,-50.294133,-60.26714462,-19.3712816,-17.65498568,-0.02101789,0.015631462809023926,6.923923806911244E-4,-61.375,0,1.5,1,13.310999870300293,0.029012188,0,149.39999389648438,-86.9110047,40.4279917,Classroom
152,-0.004548736,-0.002545691,-0.005912764,-0.013091319,-0.004428241,-0.001166927,-0.940401159,0.013801670615172502,-0.004121479,0.3397490168080747,0.00161936,0.02876038,2.448192939017583,9.905251993716341,-0.290466599,-0.016871723,9.905251993716341,-0.290466599,-0.016871723,-103.4730779,38.878471031188965,-50.35976902,-60.2129768,-19.32187166,-17.71830376,-0.02592839,0.012725490435858447,-0.005760052,-71,0,1.5,1,13.310999870300293,0.029012188,0,149.39999389648438,-86.9110047,40.4279917,Classroom
153,-5.05E-04,-2.47E-04,3.406648219634707E-4,-0.006192189,0.004696321,0.004651759,-0.941227454,0.015065629939691952,-0.00527399,0.337395667,2.3804476863959352E-4,0.031924618,2.4531994668337016,9.898134472300706,-0.311235372,0.002087912,9.898134472300706,-0.311235372,0.002087912,-103.4424559,38.93520141601562,-50.38807308,-60.18186672,-19.2647756,-17.74794968,-0.021884778,0.015024493340975963,4.933766159900607E-4,-94.125,0,1.5,1,13.310999870300293,0.029012188,0,149.39999389648438,-86.9110047,40.4279917,Classroom
154,4.2106948105744945E-4,-2.92E-04,0.001014125,0.004041311,-0.005383006,-0.002424836,-0.941130154,0.014695849549929493,-0.005202787,0.3376841151598588,1.3185791023221383E-4,0.031180225547800942,2.4525924215039003,9.908899260956106,-0.314409345,-0.003795412,9.908899260956106,-0.314409345,-0.003795412,-103.4627077,38.90567729949951,-50.37928898,-60.20272896,-19.29417753,-17.73953165,-0.020958585,0.014979101753639944,0.001166837,-50,0,1.5,1,13.310999870300293,0.029012188,0,149.39999389648438,-86.9110047,40.4279917,Classroom
155,4.922361384390049E-4,4.907534983307484E-4,0.002947486,5.013549212113167E-4,8.719479574740512E-4,-0.001537618,-0.940808172,0.013916618814601482,-0.004899651,0.3386171350201357,2.0494364691366022E-4,0.029508119141592563,2.450617482361284,9.908004909,-0.291613644,-0.003650216,9.908004909,-0.291613644,-0.003650216,-103.4763717,38.84418933868408,-50.37941113,-60.21663689,-19.35664158,-17.7387995,-0.020887418,0.015761935152113438,0.003100198,-61.25,0,1.5,1,13.310999870300293,0.029012188,0,149.39999389648438,-86.9110047,40.4279917,Classroom
156,5.396805857353419E-4,1.467812475205842E-4,5.752639166866113E-4,0.017471878273973188,-0.001336379,-5.66E-04,-0.940249295,0.012894807130243014,-0.004311836,0.34021483549793946,6.656893834164275E-4,0.027185835,2.447225917890234,9.937627736804554,-0.271143975,-0.007251066,9.937627736804554,-0.271143975,-0.007251066,-103.4496537,38.79917133331299,-50.37026115,-60.18991898,-19.40202555,-17.73001566,-0.020839973,0.015417962859484177,7.279757528963671E-4,-88.77777778,0,1.5,1,13.310999870300293,0.029012188,0,149.39999389648438,-86.9110047,40.4279917,Classroom
157,1.719861214492217E-4,-1.26E-04,3.4990280333146886E-4,0.012937786509689776,0.001662472,1.07145990308338E-4,-0.940055071,0.012618350705981832,-0.004181499,0.34076337675446444,7.382853197395006E-4,0.026576800163365104,2.446061243131323,9.965608780200665,-0.262825108,-0.007178468,9.965608780200665,-0.262825108,-0.007178468,-103.4333059,38.731217308044435,-50.34891087,-60.17369293,-19.46888157,-17.70964167,-0.021207668,0.015145157310135157,5.026145841591784E-4,-112.125,0,1.5,1,13.310999870300293,0.029012188,0,149.39999389648438,-86.9110047,40.4279917,Classroom
158,1.482638978010532E-4,-1.14E-04,-1.96E-04,0.003144375,1.9694329465477211E-4,-0.001092851,-0.939981205,0.012487381380232214,-0.004160741,0.3409722464755901,6.939009152967663E-4,0.026316231,2.4456188146350453,9.968728593252237,-0.262243486,-0.008528786,9.968728593252237,-0.262243486,-0.008528786,-103.4635618,38.74061100006104,-50.31389698,-60.20419296,-19.45704754,-17.67340763,-0.02123139,0.015157018462648091,-4.30E-05,-91.55555556,0,1.5,1,13.310999870300293,0.029012188,0,149.39999389648438,-86.9110047,40.4279917,Classroom
159,1.957083450973902E-4,-3.04E-04,2.5501390421781147E-4,-0.00140717,-5.21E-04,-0.00176486,-0.939947148,0.012452705,-0.004174267,0.34106723052784077,6.474569294086286E-4,0.026260196023340364,2.445417600928001,9.964181122270602,-0.26235964,-0.007971236,9.964181122270602,-0.26235964,-0.007971236,-103.4304997,38.779041137695316,-50.43467693,-60.17052078,-19.42203362,-17.79418768,-0.021183945,0.014967241,4.077257070853149E-4,-93.44444444,0,1.5,1,13.310999870300293,0.029012188,0,149.39999389648438,-86.9110047,40.4279917,Classroom
160,2.0756945692147446E-4,-2.68E-04,2.7873612786598E-4,-0.002415657,-0.002072477,-0.001759034,-0.939884356,0.012436583195134852,-0.004144505,0.3412411756885862,6.972685511657987E-4,0.026209449323201642,2.4450470915118467,9.959810812496444,-0.26310595,-0.008900487,9.959810812496444,-0.26310595,-0.008900487,-103.4807639,38.72828926086426,-50.3737989,-60.22102898,-19.47229774,-17.73379757,-0.021172084,0.015002823959204178,4.3144793186372925E-4,-84,0,1.5,1,13.567000389099121,0.063408554,0,149.39999389648438,-86.9110118,40.4279894,Classroom
161,2.9059723742957255E-4,-2.33E-04,8.895832963866516E-5,-0.01426932,-0.002203095,-0.001221898,-0.939862206,0.012534439319618118,-0.004116997,0.3412987754761594,8.17399142814113E-4,0.026374537353087396,2.444922032865506,9.936457365461923,-0.265042857,-0.009606138,9.936457365461923,-0.265042857,-0.009606138,-103.4806421,38.72950912475586,-50.32890289,-60.22066307,-19.47071161,-17.68951168,-0.021089056,0.015038407326323314,2.4167015567620837E-4,-93.66666667,0,1.5,1,13.567000389099121,0.063408554,0,149.39999389648438,-86.9110118,40.4279894,Classroom
162,2.3494125343859196E-4,-1.41E-04,2.3494125343859196E-4,-0.015795799,-0.002315848,-0.002139908,-0.939952991,0.012735470690621207,-0.004204369,0.34104029977550876,7.830741020510546E-4,0.026812409,2.4454702459848843,9.903059570534715,-0.268393971,-0.009736814,9.903059570534715,-0.268393971,-0.009736814,-103.5032116,38.76342540740967,-50.35793915,-60.24323296,-19.43777153,-17.71720566,-0.021144712,0.015130216873680742,3.8765305418145057E-4,-104.625,0,1.5,1,13.567000389099121,0.063408554,0,149.39999389648438,-86.9110118,40.4279894,Classroom
163,7.709722685654765E-5,-9.04E-05,1.3640278597696893E-4,-0.002709194,-0.00218227,6.229736507662292E-4,-0.939958131,0.012866893557162539,-0.00420733,0.34102118073157894,8.666533276040867E-4,0.027061559513066578,2.445508463868817,9.902385906108375,-0.270420902,-0.00804093,9.902385906108375,-0.270420902,-0.00804093,-103.4886935,38.77428307,-50.36794304,-60.22895897,-19.4247176,-17.72781963,-0.021302556,0.015180740677254292,2.891145882793494E-4,-101.4444444,0,1.5,1,13.567000389099121,0.063408554,0,149.39999389648438,-86.9110118,40.4279894,Classroom
164,1.6012501640661248E-4,-3.04E-04,1.1268056684978379E-4,0.00269001,-9.54E-04,-0.001793328,-0.939979717,0.012869599,-0.004270935,0.34096073959637613,7.471357369388553E-4,0.027110058705783584,2.445638444,9.907090159295832,-0.269593286,-0.009272188,9.907090159295832,-0.269593286,-0.009272188,-103.4274497,38.748297157287595,-50.31560516,-60.16722694,-19.45180162,-17.67548157,-0.021219529,0.014967241,2.653923674567955E-4,-126,0,1.5,1,13.567000389099121,0.063408554,0,149.39999389648438,-86.9110118,40.4279894,Classroom
165,2.0756945692147446E-4,-1.93E-05,4.447916911426678E-4,0.001134835,-1.44E-04,-0.001512445,-0.939928541,0.012773248023416811,-0.004270622,0.34110531558110874,6.860576765566558E-4,0.026928567,2.445332589658719,9.909175196897637,-0.267069788,-0.008389399,9.909175196897637,-0.267069788,-0.008389399,-103.4851559,38.724629402160645,-50.37453094,-60.22505493,-19.47412767,-17.73440758,-0.021172084,0.015251907330114865,5.975035047475068E-4,-117.6666667,0,1.5,1,13.567000389099121,0.063408554,0,149.39999389648438,-86.9110118,40.4279894,Classroom
166,7.709722685654765E-5,-2.09E-04,-5.34E-05,0.011155045148238394,6.236080984467441E-4,-2.01E-04,-0.939847026,0.012697984,-0.004196635,0.3413337147930293,7.803814194065709E-4,0.026736412378190792,2.444846333809269,9.926351547241211,-0.264631227,-0.007937729,9.926351547241211,-0.264631227,-0.007937729,-103.4778355,38.720115165710446,-50.29632885,-60.21773491,-19.47888563,-17.6558396,-0.021302556,0.015062129549971484,9.933679174740338E-5,-111.875,0,1.5,1,13.567000389099121,0.063408554,0,149.39999389648438,-86.9110118,40.4279894,Classroom
167,-2.79E-04,-5.06E-04,-0.00234257,0.017967483,0.001001073,0.001063493,-0.939961909,0.013209421784409042,-0.004394911,0.34099433057516526,7.462632405428089E-4,0.027833447981517292,2.445563008484331,9.964939034100874,-0.276153222,-0.006127252,9.964939034100874,-0.276153222,-0.006127252,-103.4517277,38.80966320037842,-50.32585297,-60.19187103,-19.38982553,-17.68548561,-0.02165839,0.014765601709159543,-0.002189858,-98.66666667,0,1.5,1,13.567000389099121,0.063408554,0,149.39999389648438,-86.9110118,40.4279894,Classroom
168,-0.001891847,-0.001596802,0.001737653,8.962223830732327E-4,-0.001589008,-0.00471633,-0.940057481,0.013164821,-0.004924382,0.3407243568341709,-2.88E-04,0.028110176,2.4461501107632535,9.964442411,-0.281301858,-0.002204068,9.964442411,-0.281301858,-0.002204068,-103.4566074,38.806491203308106,-50.31963093,-60.19699467,-19.39311956,-17.67938559,-0.023271501,0.013674379489158542,0.001890365,-95.625,0,1.5,1,13.567000389099121,0.063408554,0,149.39999389648438,-86.9110118,40.4279894,Classroom
169,-8.72E-04,2.8911461257963506E-4,-1.78E-05,-0.001712679,-6.06E-04,-8.62E-05,-0.939965878,0.012697715312242508,-0.005037362,0.3409945548159405,-8.10E-04,0.027309556374127426,2.4455864799832834,9.955724836553184,-0.273127347,0.007712788,9.955724836553184,-0.273127347,0.007712788,-103.4684419,38.75195713043213,-50.40820293,-60.20809692,-19.44826351,-17.76856762,-0.022251446,0.015560296210415155,1.3492015265018762E-4,-111.5555556,0,1.5,1,13.567000389099121,0.063408554,0,149.39999389648438,-86.9110118,40.4279894,Classroom
170,-8.90E-05,-6.48E-04,4.6851391931181975E-4,-0.001274118,-3.17E-04,0.001962586,-0.93995602,0.012462444549191345,-0.005129739,0.341029352,-0.001143746,0.026930317,2.445518776051049,9.957121700916476,-0.267935154,0.013657093,9.957121700916476,-0.267935154,0.013657093,-103.3741357,38.663873291015626,-50.50751083,-60.11440083,-19.53671368,-17.86653374,-0.021468612,0.014623268435085282,6.21225715397848E-4,-128.625,0,1.5,1,13.567000389099121,0.063408554,0,149.39999389648438,-86.9110118,40.4279894,Classroom
171,1.6445887740701437E-4,-2.35E-05,-3.99E-04,-0.006424867,0.001645798,-0.003527641,-0.940046586,0.012458021,-0.005285882,0.34077737766962785,-0.001447679,0.027028116397559643,2.446058541536331,9.946545573114191,-0.267987424,0.010683488410171934,9.946545573114191,-0.267987424,0.010683488410171934,-103.3292403,38.684125061035154,-50.46822701,-60.06938305,-19.51719374,-17.82871368,-0.021215195,0.015247687,-2.47E-04,-86.77777778,0,1.5,1,13.567000389099121,0.063408554,0,149.39999389648438,-86.9110118,40.4279894,Classroom
172,-0.008059625,-1.14E-04,-0.00106157,0.005786664,-0.005999174,0.003925217,-0.940212849,0.012999096,-0.005302815,0.34029745824128677,-0.001125016,0.028056418270017338,2.4470705638811427,9.956157517664641,-0.285259887,0.015077105745926354,9.956157517664641,-0.285259887,0.015077105745926354,-103.3542498,38.63349510192871,-50.36037907,-60.09475918,-19.56696966,-17.71927963,-0.029439279,0.015157018349623507,-9.09E-04,-73.75,0,1.5,1,13.567000389099121,0.063408554,0,149.39999389648438,-86.9110118,40.4279894,Classroom
173,-7.53E-04,6.37535060059677E-5,0.001512292,0.00147701,-0.001270516,-0.002469887,-0.940404134,0.013105265940856007,-0.005222258,0.33976585714562424,-9.17E-04,0.028200824735957444,2.4481977397955736,9.955591285112993,-0.282094623,0.006600589,9.955591285112993,-0.282094623,0.006600589,-103.3956082,38.44561550140381,-50.41039883,-60.1355069,-19.75387358,-17.77088564,-0.022132835,0.015334935085757555,0.001665004,-67,0,1.5,1,13.567000389099121,0.063408554,0,149.39999389648438,-86.9110118,40.4279894,Classroom
174,5.930540088600325E-6,-3.51E-04,5.33749941664124E-5,-0.002267134,0.001776299,-0.004812479,-0.940426684,0.012698731159122244,-0.005332588,0.3397172145473147,-0.001402455,0.027510986,2.448310928437316,9.950791053401614,-0.272140018,0.009071818,9.950791053401614,-0.272140018,0.009071818,-103.3673042,38.44720119476318,-50.43967884,-60.10647076,-19.75179968,-17.80040964,-0.021373723,0.014919796,2.0608685806719135E-4,-80,0,1.5,1,13.567000389099121,0.063408554,0,149.39999389648438,-86.9110118,40.4279894,Classroom
175,1.2454165606895119E-4,-2.68E-04,-7.53E-04,-0.003139329,0.001545367,5.515107649911955E-4,-0.940456925,0.012710276340107315,-0.005298611,0.3396334104167605,-0.001333183,0.027509433533815505,2.448488170660815,9.947953022,-0.272442415,0.013531527168547304,9.947953022,-0.272442415,0.013531527168547304,-103.392924,38.41914154052734,-50.43333523,-60.13318871,-19.78132359,-17.79369965,-0.021255112,0.015002823941685367,-6.00E-04,-83.33333333,0,1.5,1,13.567000389099121,0.063408554,0,149.39999389648438,-86.9110118,40.4279894,Classroom
176,-1.84E-04,2.891146221867247E-4,4.1513893644786575E-5,-0.00953841,-0.005600732,-0.003852561,-0.940611052,0.012946508526440385,-0.005305987,0.33919739231322577,-0.001199414,0.027958387,2.4494115334112667,9.934697632650726,-0.284603603,0.008839505,9.934697632650726,-0.284603603,0.008839505,-103.4685639,38.40706333160401,-50.46188313,-60.20846291,-19.79327971,-17.82163761,-0.021563501,0.015560296233020071,1.9422572476843607E-4,-67.5,45,1.5,1,12.024999618530273,0,0,149.39999389648438,-86.9110157,40.4279825,Classroom
177,-0.005806014,-4.94E-04,7.769028018726017E-4,-0.017153573,-0.001327373,0.002380761,-0.941028384,0.013140057982171624,-0.005520608,0.33802544202619383,-0.001507818,0.028466197,2.451904649,9.896458922080623,-0.283369441,0.017089516215774602,9.896458922080623,-0.283369441,0.017089516215774602,-103.3989018,38.321053161621094,-50.40393284,-60.13941093,-19.87880159,-17.76332165,-0.027185668,0.014777462857151494,9.296146442987097E-4,-77.66666667,45,1.5,1,12.024999618530273,0,0,149.39999389648438,-86.9110157,40.4279825,Classroom
178,-0.001986736,-2.92E-04,1.6012498023874552E-4,-4.02E-04,-0.004702068,-0.003652703,-0.941614286,0.013387030731995129,-0.005507167,0.3363815149635945,-0.001365614,0.028919675360316213,2.4553937101827086,9.898964983745685,-0.291340678,0.010651544961644319,9.898964983745685,-0.291340678,0.010651544961644319,-103.4278159,38.193929252624514,-50.31035904,-60.16734898,-20.00677963,-17.6713336,-0.02336639,0.014979101753639944,3.128368294463285E-4,-70.66666667,45,1.5,1,12.024999618530273,0,0,149.39999389648438,-86.9110157,40.4279825,Classroom
179,-9.31E-04,-7.86E-05,1.7198613953315516E-4,4.340977344698119E-4,-0.002159625,0.003228059,-0.94184897,0.013380454491498401,-0.005542654,0.3357236370878312,-0.001457167,0.028930226250470262,2.456792125424135,9.899908704665101,-0.287768865,0.015898912426228953,9.899908704665101,-0.287768865,0.015898912426228953,-103.3647416,38.113287086486814,-50.36416096,-60.10561672,-20.08717752,-17.72403765,-0.022310751,0.015192601716742643,3.246979520077483E-4,-65.875,45,1.5,1,12.024999618530273,0,0,149.39999389648438,-86.9110157,40.4279825,Classroom
180,-4.93E-04,6.930767166732738E-4,-8.93E-04,0.002939967,-3.97E-05,-0.003930838,-0.942135184,0.013433347089001192,-0.005508323,0.33491802473480886,-0.001381728,0.029005703784955237,2.4585010569829207,9.906126040856815,-0.287469763,0.010140456970457838,9.906126040856815,-0.287469763,0.010140456970457838,-103.4182997,38.12365699768066,-50.30950489,-60.15856506,-20.07607557,-17.67133369,-0.021873031,0.015964258323387746,-7.40E-04,-70.22222222,45,1.5,1,12.024999618530273,0,0,149.39999389648438,-86.9110157,40.4279825,Classroom
181,1.95708360920832E-4,-8.14E-04,0.001215764,0.010500194956955401,0.001592088,0.004293458,-0.942278015,0.013458155113661174,-0.005597035,0.33451379502861245,-0.001544728,0.029111202625395023,2.459361097187672,9.922297922152918,-0.287086446,0.019554936,9.922297922152918,-0.287086446,0.019554936,-103.3703537,38.14610523223877,-50.43638508,-60.11061897,-20.05289551,-17.79699358,-0.021183946,0.014457212815296303,0.001368476,-98.25,45,1.5,1,12.024999618530273,0,0,149.39999389648438,-86.9110157,40.4279825,Classroom
182,2.194305845690005E-4,-1.85E-04,1.2454167189239297E-4,0.017672104,0.001152254,-0.003148553,-0.942125903,0.013104269543246738,-0.005437763,0.33495881632693764,-0.001467935,0.028338339993531265,2.4584187998355014,9.960620843091057,-0.280764632,0.011383331011476682,9.960620843091057,-0.280764632,0.011383331011476682,-103.3562014,38.08144500732422,-50.37440907,-60.09585697,-20.11975151,-17.73513968,-0.021160223,0.015085852,2.77253513753378E-4,-95.55555556,45,1.5,1,12.024999618530273,0,0,149.39999389648438,-86.9110157,40.4279825,Classroom
183,7.709722685654765E-5,6.568090536957155E-4,-0.001619042,0.002072131,0.001414075,-8.43E-05,-0.942183263,0.013202576898038387,-0.005455207,0.3347930141444345,-0.001440165,0.028535133,2.458769404772416,9.962101917822384,-0.282948373,0.014168181507769086,9.962101917822384,-0.282948373,0.014168181507769086,-103.338024,38.12621932983399,-50.33707691,-60.07828918,-20.07351353,-17.69731956,-0.021302557,0.015927990609147017,-0.00146633,-97,45,1.5,1,12.024999618530273,0,0,149.39999389648438,-86.9110157,40.4279825,Classroom
184,-4.15E-05,3.9586458000291175E-4,-8.90E-05,-3.62E-04,-0.00213161,-0.002111834,-0.942251845,0.014165629894988051,-0.005213374,0.3345647604720106,-3.46E-04,0.030188171,2.4592302840890237,9.960109868095916,-0.303023112,0.001251586,9.960109868095916,-0.303023112,0.001251586,-103.4860095,38.20417701721191,-50.29413315,-60.22627499,-19.99555553,-17.65449757,-0.021421167,0.015667046,6.375348792203422E-5,-97.77777778,45,1.5,1,12.024999618530273,0,0,149.39999389648438,-86.9110157,40.4279825,Classroom
185,2.19430566485067E-4,-5.49E-05,0.002390014,-0.002592679,-7.40E-04,0.001072024,-0.94221869,0.013638016,-0.004975856,0.3346830742451751,-2.48E-04,0.029034662684335293,2.4589835555808057,9.955298414597145,-0.290299428,0.00347707,9.955298414597145,-0.290299428,0.00347707,-103.438308,38.15732917785645,-50.38575493,-60.17832905,-20.04325756,-17.74453352,-0.021160223,0.015216323990121629,0.002542726,-100,45,1.5,1,12.024999618530273,0,0,149.39999389648438,-86.9110157,40.4279825,Classroom
186,6.108472725032892E-4,1.630902141151787E-5,9.192361754084965E-4,-0.003359785,-0.001921052,9.138261984403073E-4,-0.942017856,0.012900083931615052,-0.00471297,0.3352814067914648,-2.29E-04,0.027467978774633223,2.457720809769862,9.949716688359825,-0.274605438,0.002877776,9.949716688359825,-0.274605438,0.002877776,-103.4153719,38.09254707336426,-50.35025314,-60.15588108,-20.10706352,-17.71086159,-0.020768807,0.015287490688192034,0.001071948,-108.4444444,45,1.5,1,12.024999618530273,0,0,149.39999389648438,-86.9110157,40.4279825,Classroom
187,3.3804169150738464E-4,-1.93E-05,4.1513893644786575E-5,-2.31E-05,-6.15E-04,-0.003746512,-0.941932571,0.012811679555808456,-0.004601649,0.3355259686997793,-7.16E-05,0.02722676,2.4572006012629535,9.949394374217801,-0.271768316,-0.002953278,9.949394374217801,-0.271768316,-0.002953278,-103.4849122,38.09998924255371,-50.33475899,-60.22432289,-20.10047546,-17.69426964,-0.021041612,0.015251907330114865,1.942256863400774E-4,-107.3333333,45,1.5,1,12.024999618530273,0,0,149.39999389648438,-86.9110157,40.4279825,Classroom
188,-7.71E-05,-1.62E-04,-1.78E-05,-3.08E-04,-3.44E-04,-8.41E-04,-0.94193508,0.012848608,-0.004584955,0.3355177866602407,-1.56E-05,0.027285160840425676,2.457216915575046,9.950102991270787,-0.272241653,-8.39E-04,9.950102991270787,-0.272241653,-8.39E-04,-103.4189101,38.073881225585936,-50.31658127,-60.15966305,-20.12621754,-17.67682365,-0.021456751,0.015109574,1.3492013061039366E-4,-103.5,45,1.5,1,12.024999618530273,0,0,149.39999389648438,-86.9110157,40.4279825,Classroom
189,1.4096475206315517E-4,-7.05E-05,2.3494125343859196E-4,-1.63E-04,-0.001033518,-1.46E-04,-0.941965003,0.012824619484420579,-0.004629447,0.33543409321170586,-1.18E-04,0.027269812,2.4573961037855883,9.948825289902178,-0.272561084,0.001042504,9.948825289902178,-0.272561084,0.001042504,-103.4586817,38.10889507293701,-50.38795097,-60.19894711,-20.09022766,-17.74721766,-0.021238689,0.015200699231802272,3.8765305138300534E-4,-114,45,1.5,1,12.024999618530273,0,0,149.39999389648438,-86.9110157,40.4279825,Classroom
190,5.337500320837914E-5,5.1892357448893554E-5,3.143194633382327E-4,-0.001095966,-9.09E-04,1.288149161128671E-4,-0.941909021,0.012768219830920396,-0.004561528,0.3355943329125932,-2.32E-05,0.027117968708710763,2.457055304814311,9.947573772911886,-0.270879717,2.758714802183428E-4,9.947573772911886,-0.270879717,2.758714802183428E-4,-103.4778363,38.05509307861328,-50.29291306,-60.21736908,-20.14415154,-17.65181358,-0.021326278,0.015323074,4.6703126620573613E-4,-128.75,45,1.5,1,12.024999618530273,0,0,149.39999389648438,-86.9110157,40.4279825,Classroom
191,1.719861214492217E-4,-9.04E-05,1.0081945050471616E-4,-0.012112756,-0.002648437,-4.56E-04,-0.941981462,0.012828036301850695,-0.004618329,0.3353878520067456,-9.61E-05,0.027268784898288042,2.4574939834261404,9.928477444695037,-0.273917211,4.152591909322598E-4,9.928477444695037,-0.273917211,4.152591909322598E-4,-103.5438379,38.02739917755127,-50.31340889,-60.28337093,-20.17196758,-17.67304171,-0.021207667,0.015180740677254292,2.5353125337221956E-4,-130.5555556,45,1.5,1,13.345000267028809,0,0,149.39999389648438,-86.9110061,40.4279887,Classroom
192,1.779166773612638E-5,-6.67E-05,2.668750160418957E-4,-0.016003359,-0.002955564,2.845979009718788E-4,-0.942062759,0.013034660278738123,-0.004641276,0.3351511567541697,-7.60E-06,0.02767352,2.4579933245205186,9.894789177237206,-0.277419327,2.7587148417420324E-4,9.894789177237206,-0.277419327,2.7587148417420324E-4,-103.4680756,38.03398723602295,-50.35952518,-60.20785309,-20.16635555,-17.71891363,-0.021361862,0.015204462873776562,4.1958681438841576E-4,-110.875,45,1.5,1,13.345000267028809,0,0,149.39999389648438,-86.9110061,40.4279887,Classroom
193,-1.28E-04,-1.85E-04,8.59930675060859E-5,-0.00278621,-0.001386107,-0.001005256,-0.942171101,0.013155849126068134,-0.004743683,0.3348403066686056,-1.29E-04,0.027970519875293795,2.4586534476974635,9.892024633,-0.278360196,1.8294634369825854E-4,9.892024633,-0.278360196,1.8294634369825854E-4,-103.4405038,38.08827701568603,-50.36660099,-60.18064705,-20.11194363,-17.72635557,-0.021373723,0.015085851728409818,3.721423761340455E-4,-123.8888889,45,1.5,1,13.345000267028809,0,0,149.39999389648438,-86.9110061,40.4279887,Classroom
194,0.001750997,0.001226142,0.002818497,0.001886081,1.5648707602787943E-4,5.237559914516593E-4,-0.941950743,0.012988590373142251,-0.004476908,0.3354680196752826,2.795820522523464E-4,0.027476036306289794,2.4573173546096654,9.897749809118418,-0.271723418,-0.002438839,9.897749809118418,-0.271723418,-0.002438839,-103.4782019,38.05301914215088,-50.27522305,-60.21810089,-20.14720167,-17.63570967,-0.019475945,0.016497324049038795,0.00312392,-129.125,45,1.5,1,13.345000267028809,0,0,149.39999389648438,-86.9110061,40.4279887,Classroom
195,6.716354643853689E-4,-1.02E-04,3.395243299202722E-4,0.002240227,2.1162629127502441E-4,-0.001602259,-0.941150583,0.011978164025880759,-0.003635771,0.3377556196115549,0.00124814,0.025005113,2.452458083050922,9.901442027786404,-0.247192518,-0.013964908,9.901442027786404,-0.247192518,-0.013964908,-103.4613657,38.01288128,-50.31914288,-60.20199688,-20.18709549,-17.6786536,-0.020555306,0.015168879560909225,6.449479514787209E-4,-125.1111111,45,1.5,1,13.345000267028809,0,0,149.39999389648438,-86.9110061,40.4279887,Classroom
196,-2.82E-05,-2.09E-04,-3.72E-04,0.013362578975344166,0.002149116,-3.16E-04,-0.941158347,0.011976041442271575,-0.003621303,0.3377342224121094,0.001273386,0.024991371,2.452503289991212,9.924176734628029,-0.245609885,-0.013151813,9.924176734628029,-0.245609885,-0.013151813,-103.4707599,38.04899314880371,-50.29498718,-60.2109029,-20.15037354,-17.65437571,-0.021255112,0.01506213,-6.67E-05,-132.25,45,1.5,1,13.345000267028809,0,0,149.39999389648438,-86.9110061,40.4279887,Classroom
197,-1.59E-04,-6.60E-04,-0.001012642,0.016988328359659435,0.001603968,-4.45E-04,-0.941338398,0.012092082263919914,-0.003827367,0.3372255612924261,9.500890132717933E-4,0.025349534324650626,2.4535864209665834,9.959624883040641,-0.250317125,-0.009899433,9.959624883040641,-0.250317125,-0.009899433,-103.4829598,38.060461082458495,-50.31743519,-60.22273685,-20.14085768,-17.67718969,-0.021385584,0.014611407246404482,-7.07E-04,-135.7777778,45,1.5,1,13.345000267028809,0,0,149.39999389648438,-86.9110061,40.4279887,Classroom
198,-3.76E-04,-3.52E-04,-0.001021994,0.001660145,0.002239458,-8.07E-04,-0.941515002,0.012262072,-0.004004535,0.33672399904865485,7.174108390105315E-4,0.025789531,2.454652782,9.959197988787901,-0.254786243,-0.007971236,9.959197988787901,-0.254786243,-0.007971236,-103.4912559,38.10840728759766,-50.33683292,-60.23091087,-20.09278959,-17.69683157,-0.021602848,0.014918769718720935,-7.17E-04,-133.375,45,1.5,1,13.345000267028809,0,0,149.39999389648438,-86.9110061,40.4279887,Classroom
199,1.7346878472751783E-4,-6.12E-04,-3.13E-04,-4.12E-06,6.523054201626083E-4,-7.11E-04,-0.941840505,0.012624545122306902,-0.004353711,0.3357946456057354,2.7757370051545275E-4,0.026707641201690564,2.456627882800056,9.957359767654568,-0.26538552,-0.003557291,9.957359767654568,-0.26538552,-0.003557291,-103.4497759,38.129879302978516,-50.30572289,-60.18991901,-20.07095152,-17.6657217,-0.021053473,0.014658851711784751,-7.41E-06,-128.1111111,45,1.5,1,13.345000267028809,0,0,149.39999389648438,-86.9110061,40.4279887,Classroom
200,-6.38E-05,6.375346192637983E-5,7.857987770213953E-5,-0.001981022,9.593680066969788E-4,3.1239441505551916E-4,-0.941785908,0.012505701743066311,-0.004327252,0.33595263813305826,2.5204170071570773E-4,0.026465975,2.456293911609835,9.954354314,-0.26268488,-0.00227957,9.954354314,-0.26268488,-0.00227957,-103.4158602,38.14415298461914,-50.42320938,-60.15612514,-20.05606768,-17.7822316,-0.021290695,0.015334935108362471,3.840034834371464E-4,-118.6666667,45,1.5,1,13.345000267028809,0,0,149.39999389648438,-86.9110061,40.4279887,Classroom
201,1.9274314625857813E-5,-2.56E-04,-2.89E-04,-0.011743833,-0.001024132,-7.53E-04,-0.941805569,0.012576644914676843,-0.004352621,0.3358944585022417,2.5025436297944256E-4,0.026616663174721802,2.456416738843455,9.934959106074954,-0.26591403,-0.003324978,9.934959106074954,-0.26591403,-0.003324978,-103.4591698,38.125853271484374,-50.4127169,-60.19943489,-20.07363569,-17.77247158,-0.021207667,0.015014685084591212,1.630902875811585E-5,-112.875,0,1.5,1,13.348999977111816,0.036743015,0,149.39999389648438,-86.9110022,40.4279916,Classroom
202,-2.54E-04,-1.26E-04,1.4974656616545564E-4,-0.014402158,-0.001886699,-3.58E-04,-0.941978139,0.012850480660506822,-0.004506963,0.3353978516986069,1.2915744542205094E-4,0.027236358,2.457469836,9.904526006828235,-0.272209711,-0.001722019,9.904526006828235,-0.272209711,-0.001722019,-103.4341594,38.12170513153076,-50.30340508,-60.17418098,-20.0790036,-17.66364759,-0.021480473,0.015145157292051223,4.5517013686284134E-4,-115.6666667,0,1.5,1,13.348999977111816,0.036743015,0,149.39999389648438,-86.9110022,40.4279916,Classroom
203,9.044098670060918E-5,-1.50E-04,1.0230208948272669E-4,-0.004815546,-9.19E-04,-7.30E-04,-0.94197085,0.012938476,-0.004459979,0.3354155348921285,2.772740051767366E-4,0.027370623213428896,2.457429591891835,9.897289670430697,-0.272094421,-0.003267123,9.897289670430697,-0.272094421,-0.003267123,-103.507238,38.11963119506836,-50.29876907,-60.24725906,-20.0802236,-17.65925568,-0.021136501,0.015121435113612887,4.0772571895289624E-4,-124.25,0,1.5,1,13.348999977111816,0.036743015,0,149.39999389648438,-86.9110022,40.4279916,Classroom
204,-2.18E-04,-1.62E-04,-4.79E-04,0.001578257,0.001087948,-9.28E-06,-0.942048131,0.013066274728806853,-0.004520686,0.3351926502672214,2.4209617987315106E-4,0.027652231,2.4579018528021654,9.902249308465754,-0.272805012,-0.002790659,9.902249308465754,-0.272805012,-0.002790659,-103.4567294,38.136711311340335,-50.30072117,-60.19675102,-20.06216751,-17.6604756,-0.02144489,0.015109574,-1.73E-04,-129.7777778,0,1.5,1,13.348999977111816,0.036743015,0,149.39999389648438,-86.9110022,40.4279916,Classroom
205,-2.06E-04,-2.33E-04,-8.75E-05,0.002403731,-3.46E-04,-0.001158271,-0.942107399,0.013146311623378865,-0.004585693,0.3350220452813269,1.6823757894740392E-4,0.027846678,2.4582641008988166,9.906915923924123,-0.27639715,-0.002558346,9.906915923924123,-0.27639715,-0.002558346,-103.4935737,38.16355125427246,-50.35501087,-60.23371712,-20.03715757,-17.71452162,-0.021433029,0.015038407299197415,2.1794790546726255E-4,-123.625,0,1.5,1,13.348999977111816,0.036743015,0,149.39999389648438,-86.9110022,40.4279916,Classroom
206,-2.89E-04,2.817012023777493E-5,-9.93E-05,0.011809534239537508,0.002108095,8.878999737823762E-4,-0.942075125,0.013111251677630597,-0.004551058,0.33511464804121593,2.1274258688208647E-4,0.027757378204644304,2.4580673477024706,9.924818548183996,-0.27306346,-0.001420013,9.924818548183996,-0.27306346,-0.001420013,-103.4791777,38.15708534240723,-50.26534115,-60.21919903,-20.0431356,-17.6246077,-0.021516056,0.015299352,2.060868015548992E-4,-109,0,1.5,1,13.348999977111816,0.036743015,0,149.39999389648438,-86.9110022,40.4279916,Classroom
207,-2.58E-04,1.5271179402659E-4,-4.58E-04,0.018415350180405837,0.004012067,-0.001743966,-0.941972831,0.012940851971507072,-0.004456076,0.335409948,2.860796980100461E-4,0.027372483,2.4574413093236775,9.963353444071648,-0.26837074,-0.004904706,9.963353444071648,-0.26837074,-0.004904706,-103.4139079,38.130733222961425,-50.30474689,-60.15429512,-20.06973162,-17.66535568,-0.021485377,0.015423893364361273,-1.53E-04,-120.375,0,1.5,1,13.348999977111816,0.036743015,0,149.39999389648438,-86.9110022,40.4279916,Classroom
208,-2.06E-04,2.8170129844864596E-5,-1.23E-04,0.002926891,8.491049113782864E-4,0.002404529,-0.941940739,0.012856182253476485,-0.004440523,0.3355035370993383,2.6126064530067154E-4,0.02720249,2.457243803635384,9.964901257487176,-0.270269897,-2.82E-04,9.964901257487176,-0.270269897,-2.82E-04,-103.4398939,38.16391727,-50.35513309,-60.17954906,-20.03642551,-17.71476549,-0.021433029,0.015299351768369236,1.8236457451599315E-4,-115,0,1.5,1,13.348999977111816,0.036743015,0,149.39999389648438,-86.9110022,40.4279916,Classroom
209,-2.11E-04,-4.30E-05,2.6687514602016765E-5,-0.00149025,0.001890616,1.4363570495969753E-4,-0.941910186,0.012786686890622944,-0.004433557,0.33559207574835104,2.3027444341687883E-4,0.027066858177914203,2.4570569019873165,9.961343996733138,-0.267946768,-0.002233108,9.961343996733138,-0.267946768,-0.002233108,-103.4520938,38.15549922943115,-50.37184708,-60.19272507,-20.04411154,-17.7330657,-0.021456751,0.015228185115508663,3.12836811362395E-4,-110,0,1.5,1,13.348999977111816,0.036743015,0,149.39999389648438,-86.9110022,40.4279916,Classroom
210,-5.34E-05,1.4678124243447792E-4,5.930555912042127E-6,-0.003576371,7.245890723848806E-4,8.311506261307638E-5,-0.941843786,0.012725927957415003,-0.004370895,0.335781509,3.129708263073659E-4,0.026910246,2.4566543148559274,9.955751067226373,-0.267447293,-0.003115896,9.955751067226373,-0.267447293,-0.003115896,-103.4483115,38.15659713745117,-50.31438499,-60.18808891,-20.04374559,-17.67511553,-0.021433028,0.015417962931819911,1.586423576492997E-4,-117.125,0,1.5,1,13.348999977111816,0.036743015,0,149.39999389648438,-86.9110022,40.4279916,Classroom
211,6.52361150324634E-5,-7.41E-06,-1.48E-04,-5.25E-04,1.7045539559669865E-4,0.001064346,-0.941850376,0.012723381495446835,-0.004380516,0.33576298251892756,2.9260174863524193E-4,0.026911912757216147,2.45669392,9.954005908040168,-0.267897401,-0.001931101,9.954005908040168,-0.267897401,-0.001931101,-103.4270837,38.16708908081055,-50.35757317,-60.16722694,-20.03227774,-17.71744967,-0.021314417,0.015263768446459932,4.4479067618190085E-6,-106,0,1.5,1,13.348999977111816,0.036743015,0,149.39999389648438,-86.9110022,40.4279916,Classroom
212,-1.78E-05,8.74756872699171E-5,1.3640278597696893E-4,-4.63E-04,-4.63E-04,4.825852856546351E-4,-0.941827555,0.012710189401597074,-0.004365671,0.3358277007214074,3.135600621762315E-4,0.026877072775392856,2.4565564012064516,9.953843245139488,-0.268208958,-0.002737941,9.953843245139488,-0.268208958,-0.002737941,-103.3981696,38.15415714263916,-50.37294506,-60.13782501,-20.04691755,-17.73416363,-0.021397445,0.015358657377220473,2.891145882793494E-4,-92,0,1.5,1,13.348999977111816,0.036743015,0,149.39999389648438,-86.9110022,40.4279916,Classroom
213,-5.93E-06,4.003124449456346E-5,-1.78E-05,-9.62E-04,1.9612850494755125E-4,3.2761811450557804E-4,-0.941800226,0.012689675258707653,-0.004349182,0.33590533085239743,3.330568679567716E-4,0.026827321885135567,2.4563915104541962,9.952083504315718,-0.266912977,-0.003069434,9.952083504315718,-0.266912977,-0.003069434,-103.4796658,38.11719135284424,-50.3661132,-60.21932102,-20.08217554,-17.72623356,-0.021385584,0.015311212911840203,1.3492013795699166E-4,-94.66666667,0,1.5,1,13.348999977111816,0.036743015,0,149.39999389648438,-86.9110022,40.4279916,Classroom
214,-5.93E-06,-1.02E-04,5.337500320837914E-5,-0.003408275,2.5278503455004647E-4,-3.45E-04,-0.941803475,0.012728063009896325,-0.004330345,0.33589501172593494,3.940562855506551E-4,0.026886989606670963,2.456412322312883,9.945085081081945,-0.267395025,-0.004230998,9.945085081081945,-0.267395025,-0.004230998,-103.4627081,38.13524719238281,-50.28034714,-60.20260712,-20.06350962,-17.64071161,-0.021385584,0.015168879560909225,2.0608680664100547E-4,-99.75,0,1.5,1,13.348999977111816,0.036743015,0,149.39999389648438,-86.9110022,40.4279916,Classroom
215,1.482638978010532E-4,-2.09E-04,-6.52E-05,5.131878899139108E-4,2.303638504546823E-4,-0.001598051,-0.94179723,0.012640062023352073,-0.004338754,0.3359156340649984,3.1960690549364426E-4,0.026726826464811577,2.4563702842564257,9.947111907514554,-0.265353576,-0.004718855,9.947111907514554,-0.265353576,-0.004718855,-103.4540459,38.12072933197022,-50.26704887,-60.19406708,-20.07900362,-17.62729166,-0.02123139,0.015062129540929517,8.74757002677443E-5,-88,0,1.5,1,13.348999977111816,0.036743015,0,149.39999389648438,-86.9110022,40.4279916,Classroom
216,-1.72E-04,-5.49E-05,-1.96E-04,-0.008143258,-0.002593579,0.002206328,-0.941899447,0.012828538230466612,-0.004414266,0.335620804,2.9553812993133726E-4,0.027132735,2.4569946724234275,9.935577512944786,-0.272987959,-0.00137355,9.935577512944786,-0.272987959,-0.00137355,-103.4658797,38.10450298309326,-50.31182301,-60.20541298,-20.09425358,-17.67182165,-0.02155164,0.015216323999163596,-4.30E-05,-110.25,45,1.5,1,13.336000442504883,0,0,149.39999389648438,-86.9110077,40.4279915,Classroom
217,4.698825068771839E-5,-1.53E-04,2.819294862162608E-4,-0.015380502,-2.59E-04,-0.001146511,-0.941942727,0.012865018269691903,-0.004449747,0.33549744435227835,2.496081705432883E-4,0.027225320567735113,2.457256777928426,9.901712075020503,-0.270298938,-0.003394672,9.901712075020503,-0.270298938,-0.003394672,-103.4190318,38.115605201721195,-50.32353493,-60.15880882,-20.08363956,-17.68267962,-0.021332665,0.015118469770711202,4.346413115854375E-4,-117.5555556,45,1.5,1,13.336000442504883,0,0,149.39999389648438,-86.9110077,40.4279915,Classroom
218,1.779166773612638E-5,1.8236457790673068E-4,-2.31E-04,-0.003664452,-0.001570571,0.001099912,-0.942019204,0.012960077778806964,-0.004529391,0.33527795087943957,1.5693910931412512E-4,0.027457941,2.4577228976684866,9.896601241769142,-0.27358326,-5.37E-04,9.896601241769142,-0.27358326,-5.37E-04,-103.4523378,38.10706501,-50.34268898,-60.1922369,-20.09205759,-17.70207762,-0.021361862,0.015453546199477414,-7.86E-05,-98.5,45,1.5,1,13.336000442504883,0,0,149.39999389648438,-86.9110077,40.4279915,Classroom
219,4.151389138429489E-5,-3.11E-05,2.4315279239372722E-4,0.001663782,-9.53E-04,-0.001210288,-0.942026884,0.013050181501843398,-0.004506777,0.33525322681491815,2.5931820618124333E-4,0.027612573,2.4577732363950857,9.901619309360541,-0.274524127,-0.003859298,9.901619309360541,-0.274524127,-0.003859298,-103.5015038,38.13414924621582,-50.33683304,-60.24103687,-20.06521757,-17.69744164,-0.02133814,0.015240046213769797,3.9586460034733695E-4,-104.2222222,45,1.5,1,13.336000442504883,0,0,149.39999389648438,-86.9110077,40.4279915,Classroom
220,-4.45E-04,-2.45E-04,-9.31E-04,0.002958427,-1.60E-04,7.447863305077969E-4,-0.942230602,0.013418714759997952,-0.004691705,0.3346624562462557,1.398116704329421E-4,0.028431065651832274,2.459024776532812,9.906361265089906,-0.281891349,-7.23E-04,9.906361265089906,-0.281891349,-7.23E-04,-103.5024799,38.149765205383304,-50.34390907,-60.24201309,-20.05033358,-17.70354168,-0.021824445,0.015026546237104147,-7.78E-04,-107.5,45,1.5,1,13.336000442504883,0,0,149.39999389648438,-86.9110077,40.4279915,Classroom
221,2.668750160418957E-4,8.747568500942542E-5,0.001180181,0.010748641004840147,0.001250265,0.001217863,-0.942142588,0.013064899554168716,-0.004683079,0.33492468630225913,-7.29E-05,0.0277585,2.4584745434881414,9.923464023149931,-0.274225526,0.001840633,9.923464023149931,-0.274225526,0.001840633,-103.4381859,38.15720710754395,-50.33768726,-60.17832912,-20.04191561,-17.69622156,-0.021112779,0.015358657368178506,0.001332892,-110.8888889,45,1.5,1,13.336000442504883,0,0,149.39999389648438,-86.9110077,40.4279915,Classroom
222,-5.93E-06,-5.49E-05,1.957083450973902E-4,0.015781402587890625,9.155447043261482E-4,1.3764674557164961E-4,-0.941916931,0.012610426,-0.004503349,0.33557886348187344,-2.00E-05,0.026781605466187578,2.457089701902519,9.959171896999322,-0.265391325,2.526402316910658E-4,9.959171896999322,-0.265391325,2.526402316910658E-4,-103.4400161,38.10852912902832,-50.27119717,-60.17954899,-20.09059359,-17.63107376,-0.021385584,0.015216323972037695,3.484201315763289E-4,-108.125,45,1.5,1,13.336000442504883,0,0,149.39999389648438,-86.9110077,40.4279915,Classroom
223,-1.78E-05,-1.62E-04,1.719861214492217E-4,0.005063807,-3.58E-04,-0.001167456,-0.941853989,0.012508422841580168,-0.004441406,0.33576012583612236,3.3356993369182515E-5,0.026547823264037523,2.456705227638911,9.964091060231032,-0.264720523,-0.001466475,9.964091060231032,-0.264720523,-0.001466475,-103.4944279,38.11560527801514,-50.35196098,-60.23383926,-20.0844936,-17.71269163,-0.021397445,0.015109573961099953,3.246979135793896E-4,-127.2222222,45,1.5,1,13.336000442504883,0,0,149.39999389648438,-86.9110077,40.4279915,Classroom
224,-5.93E-06,8.747568783504002E-5,-1.48E-04,-5.26E-04,2.3075648881856677E-4,-3.39E-04,-0.941820619,0.012507899320747667,-0.004391077,0.33585441951612827,1.3049604946626487E-4,0.026513024,2.4565038727325144,9.962438759294528,-0.264128125,-0.001931101,9.962438759294528,-0.264128125,-0.001931101,-103.4101258,38.14903316497803,-50.2904731,-60.15026897,-20.05094362,-17.65132566,-0.021385584,0.015358657304884739,4.447899980343951E-6,-117.8888889,45,1.5,1,13.336000442504883,0,0,149.39999389648438,-86.9110077,40.4279915,Classroom
