seconds_elapsed,accelerometer_z,accelerometer_y,accelerometer_x,accelerometerUncalibrated_z,accelerometerUncalibrated_y,accelerometerUncalibrated_x,gyroscope_z,gyroscope_y,gyroscope_x,microphone_dBFS,magnetometerUncalibrated_z,magnetometerUncalibrated_y,magnetometerUncalibrated_x,orientation_qz,orientation_qy,orientation_qx,orientation_qw,orientation_roll,orientation_pitch,orientation_yaw,totalAcceleration_z,totalAcceleration_y,totalAcceleration_x,gyroscopeUncalibrated_z,gyroscopeUncalibrated_y,gyroscopeUncalibrated_x,location_bearingAccuracy,location_speedAccuracy,location_verticalAccuracy,location_horizontalAccuracy,location_speed,location_bearing,location_altitude,location_longitude,location_latitude,magnetometer_z,magnetometer_y,magnetometer_x,class
0,-0.002530639,-0.001548459,-7.12E-04,9.920328633,0.3120141014456749,0.44219362586736677,6.198303171378724E-4,-0.00135644,6.108472418204389E-4,-59.125,-60.82919881,63.45490979391431,-71.73871007,-0.445628669,-0.026989496,0.004198917,0.8947746486806157,-0.044595537,-0.031579506,0.9234428645959541,9.922265081694633,0.31231773667263263,0.44287159181002417,-0.020616095,0.012026056,0.001088072,45,1.5,1,12.357999801635742,0,0,160.39999389648438,-86.9156284,40.3848219,-2.759264565,29.900885655329777,-40.03120211,Drive
1,-0.019998162,-0.005667574,-0.006572958,9.883870485916878,0.30738768835090896,0.4435491709454546,5.767465737485553E-4,-0.001567149,5.663680681253521E-4,-38.25,-60.8345665,63.410840873718264,-71.63632446,-0.44642464,-0.027360011,0.003986701,0.8943939625638203,-0.045419964,-0.031564961,0.925196061,9.883870485916878,0.30738768835090896,0.4435491709454546,-0.020650195,0.011871490415041019,0.001024504,45,1.5,1,12.357999801635742,0,0,160.39999389648438,-86.9156284,40.3848219,-2.755247931,29.87108943939209,-39.95585335,Drive
2,0.006865427,-0.001695194,-0.008892878,9.893179884323708,0.3088409294589208,0.4419129290259801,4.937187887194738E-4,-0.001448538,5.307847292623618E-4,-34.11111111,-60.7758847,63.52417888641357,-71.6199762,-0.446201035,-0.027380786,0.003897423,0.8945052965173443,-0.045544655,-0.031412377,0.9246978053768862,9.893179884323708,0.3088409294589208,0.4419129290259801,-0.020733223,0.011990101551365795,9.889201706420015E-4,45,1.5,1.0152682065963745,11.621000289916992,0.6088259220123291,196.25238037109375,160.39999389648438,-86.9156412,40.3847886,-2.695711956,29.984549503326416,-39.9404813,Drive
3,0.013612562012903898,7.646870844572494E-5,-0.007900157,9.924391635,0.31429318953486324,0.43885644923136075,2.802187741905885E-4,-9.39E-04,1.2750692837374303E-4,-31.5,-60.76185482,63.516370887756345,-71.64620667,-0.446089366,-0.027204601,0.004078653,0.8945655614426993,-0.045071427,-0.031573863,0.924447847,9.924391635,0.31429318953486324,0.43885644923136075,-0.020946723,0.012500129314591584,5.856423782302266E-4,45,0.19416487216949463,1.0252783298492432,9.513999938964844,2.8195033073425293,202.10362243652344,160.39999389648438,-86.9156801,40.3847192,-2.681559963,29.976375408172608,-39.96585701,Drive
4,0.004818537,-0.003509379,-0.003470638,9.931009672,0.30789006465268365,0.44320070049137744,4.344132307292984E-4,-6.66E-04,9.1923580468786E-5,-25.55555556,-43.68453903,47.212901191711424,-61.53875072,-0.452462546,-0.027182954,0.003838282,0.8913481970435208,-0.045024742,-0.031447023,0.9387354202640866,9.931009672,0.30789006465268365,0.44320070049137744,-0.020792529,0.012772934918192405,5.50059041062605E-4,45,0.1063014566898346,1.0352706909179688,8.170000076293945,2.324845314025879,200.74501037597656,160.39999389648438,-86.9156844,40.3847073,14.395755771398544,13.673149757385254,-29.85986538,Drive
5,5.296781225111878E-4,0.001668479,-0.006872093,9.930844112507348,0.31606167085577275,0.4376019606891188,5.411632467531463E-4,-0.001057122,1.1564584141506732E-4,-22,-41.59028709,45.10779098510742,-60.32777882,-0.465640411,-0.027177629,0.003551141,0.8845410856228431,-0.044810799,-0.031598158,0.9684114768667128,9.930844112507348,0.31606167085577275,0.4376019606891188,-0.020685779,0.012381518338196595,5.737813133113447E-4,45,0.098994948,1.0453487634658813,7.315999984741211,1.6209794282913208,201.7785645,160.39999389648438,-86.9156852,40.3847082,16.489763717651368,11.567795743942261,-28.64816137,Drive
6,-0.017698224,-0.003893767,-0.005293366,9.894673041927005,0.3069666208862101,0.44285223090532916,3.6415897361271514E-4,-0.001245189,2.9367648060612666E-4,-24.22222222,-41.62408119,44.994087295532225,-60.29093494,-0.476282828,-0.027243529,0.003016179,0.8788590969947668,-0.045051416,-0.031258411,0.9925531326578214,9.894673041927005,0.3069666208862101,0.44285223090532916,-0.020862783,0.012193451246555643,7.518120781661799E-4,45,0.098994948,1.055290699005127,5.603000164031982,1.3227858543395996,201.59095764160156,160.39999389648438,-86.915683,40.3847117,16.45462770462036,11.454213752746583,-28.61204948,Drive
7,-0.009550891,-0.003831553,-0.00940569,9.876616496484257,0.30174248643870494,0.4362545444548709,1.7346878924850122E-4,-0.001329927,2.105346693232366E-4,-22,-41.70862751,44.991769027709964,-60.24445271,-0.484970082,-0.027176956,0.00257498,0.8741007267850117,-0.045050392,-0.030866621,1.0123797099567153,9.876616496484257,0.30174248643870494,0.4362545444548709,-0.021053473,0.012108712692776677,6.68670250288238E-4,45,0.086023256,1.0652995109558105,4.205999851226807,0.39547014236450195,220.02027893066406,160.39999389648438,-86.9156835,40.3847168,16.371423683166505,11.452261762619019,-28.56361542,Drive
8,-6.73E-04,-0.003590713,-0.006845782,9.878919296,0.29930029592467744,0.4383685921581046,4.6999658202499296E-4,-0.00125876,1.3936798368553512E-4,-23,-41.71692329,44.950167198181155,-60.23200901,-0.492083636,-0.02712914,0.002247983,0.8701195022434864,-0.045035434,-0.030616325,1.0286954305704357,9.878919296,0.29930029592467744,0.4383685921581046,-0.020756945,0.012179879359200198,5.975035765181178E-4,45,0.086023256,1.0752158164978027,4.15500021,0.23230868577957153,340.49383544921875,160.39999389648438,-86.9156829,40.3847219,16.36227367401123,11.410537767410279,-28.55239147,Drive
9,0.022663857,0.004871137,-0.003614945,9.919799988086407,0.31104681296990466,0.4419618223149043,3.6324656487089914E-4,-9.03E-04,2.9356243965912213E-4,-21.625,-41.81098511,45.05252540588379,-60.26116673,-0.49805227,-0.027244939,0.002217136,0.866714147,-0.045055498,-0.030986931,1.0424354238417541,9.919799988086407,0.31104681296990466,0.4419618223149043,-0.020863696,0.012535712707141251,7.51697995193592E-4,45,0.092195444,1.0349231958389282,3.878000020980835,0.3283783495426178,340.9084473,160.39999389648438,-86.9156845,40.3847253,16.26906560897827,11.511919708251954,-28.58191538,Drive
10,0.013395642771304232,0.001078266,-0.007552062,9.941800561923426,0.3128383283331556,0.43878675519841387,2.920799142708188E-4,-0.001187594,3.1728465087458636E-4,-20.88888889,-42.25689518,45.841011123657225,-60.84225292,-0.502954234,-0.027276099,0.002243894,0.8638784879619635,-0.04490649,-0.031319288,1.0537607021702147,9.941800561923426,0.3128383283331556,0.43878675519841387,-0.020934862,0.012251046102480439,7.754202307093418E-4,45,0.092195444,1.0449564456939697,3.881000042,0.13266324996948242,316.4405517578125,160.39999389648438,-86.9156854,40.3847249,15.823155660629272,12.301381797790528,-29.16178146,Drive
11,-0.014670502,-0.003740977,-0.008594564,9.911933861889885,0.30730347407674324,0.43990476111185206,5.530243540562473E-4,-0.001163871,2.105346693232366E-4,-29.125,-42.45429119,45.95947299957275,-61.43456276,-0.506874024,-0.027303119,0.002054454,0.8615843358549099,-0.045002492,-0.031223774,1.0628483607931045,9.911933861889885,0.30730347407674324,0.43990476111185206,-0.020673918,0.012274768366817457,6.686702107296334E-4,45,0.092195444,1.0549215078353882,3.9000000953674316,0.255239338,337.81903076171875,160.39999389648438,-86.9156866,40.3847279,15.626247673034667,12.419111757278442,-29.75531136,Drive
12,-0.012984424,-0.003417386,-0.004580069,9.882424308258352,0.30354000541191656,0.4408979007377497,4.34413255029584E-4,-0.001282483,3.172846553955697E-4,-26.77777778,-42.69975517,46.275087394714355,-61.54119083,-0.510252178,-0.027246411,0.00181438,0.8595906131475874,-0.045026802,-0.030929372,1.0707027796402717,9.882424308258352,0.30354000541191656,0.4408979007377497,-0.020792529,0.012156157263269811,7.754202403164315E-4,45,0.092195444,1.0648502111434937,3.9000000953674316,0.19051934778690338,350.0842285,160.39999389648438,-86.9156865,40.3847292,15.380173740386963,12.735335855484008,-29.8621833,Drive
13,7.492578946627104E-4,-0.200437797,0.013391327399473924,9.887732663200897,0.020882024438780487,0.4687376925088827,6.695825806953228E-4,-0.001574106,-0.002196701,-29.55555556,-42.99523922,46.73173301696777,-61.86351475,-0.512199111,-0.025592624,-0.002055024,0.8584607329506141,-0.046069967,-0.022690783,1.0753888121018043,9.887732663200897,0.020882024438780487,0.4687376925088827,-0.02055736,0.011864533468794364,-0.001738565,45,0.086023256,1.0749188661575317,3.9000000953674316,0.1188104897737503,94.51661682128906,160.39999389648438,-86.9156839,40.384728,15.084445772171021,13.191371755599976,-30.18438545,Drive
14,0.00760071,-0.013775533,0.011461177207891223,9.897995087706928,-0.161846575,0.5263977513729947,-0.009991504,-0.001246899,-0.004462743,-17.75,-42.67462318,46.65438510894776,-61.60084881,-0.51252653,-0.018495575,-0.019754015,0.8582378122413042,-0.05201863,0.014947173371006853,1.0770827080439596,9.897995087706928,-0.161846575,0.5263977513729947,-0.031218446,0.012191740199200158,-0.004004608,45,0.086023256,1.033089518547058,3.9000000953674316,0.15348465740680695,81.97052001953125,160.39999389648438,-86.9156818,40.3847284,15.404695644378663,13.11426770210266,-29.92098734,Drive
15,0.035781629,0.12429920070379682,0.05764082,9.926909354126568,-0.073721588,0.5787378419371485,-0.097597676,0.007008434,-0.021163189,-17.33333333,-43.03440125,46.36683101654053,-61.2731567,-0.533371999,-0.016896704,-0.022466482,0.8452749570596565,-0.052634006,0.019987094,1.1263343292532615,9.926909354126568,-0.073721588,0.5787378419371485,-0.118824618,0.020447074354273603,-0.020705053,67.40994262695312,0.8848163485527039,1.0431264638900757,3.9000000953674316,0.4860471487045288,271.8902893066406,160.39999389648438,-86.9156837,40.3847242,15.045527677536011,12.826469793319703,-29.59305143,Drive
16,0.052060637,0.24741294607520103,-0.215241667,9.955809037662247,0.10230187959155267,0.2431851203021598,-0.195665348,0.001018573,-0.008080382,-17.125,-43.93683514,43.696861267089844,-59.80012901,-0.599056298,-0.01422732,-0.019717897,0.7998168439541048,-0.046254572,0.014628976732673287,1.2860597591955685,9.955809037662247,0.10230187959155267,0.2431851203021598,-0.216892291,0.014457212774607452,-0.007622247,7.878266334533691,0.8237718343734741,1.0530784130096436,3.9000000953674316,0.7896783947944641,266.5397949,160.39999389648438,-86.9156956,40.3847165,14.143581705093384,10.157231836318969,-28.11916948,Drive
17,0.019946598312229787,0.11430534986254659,-0.178215711,9.919981222886305,0.092115044,0.080910191,-0.196720988,6.508785215188361E-4,-0.010333994,-21.11111111,-44.53121914,40.23315918,-58.19155869,-0.676320592,-0.009024283,-0.009687734,0.735917158,-0.026265398,0.002303734,1.4864950828181887,9.919981222886305,0.092115044,0.080910191,-0.217947931,0.014089518520547059,-0.009875858,9.552514076,0.8237718343734741,1.0630985498428345,3.9000000953674316,0.8869765400886536,277.8598633,160.39999389648438,-86.9157082,40.3847196,13.548709716796875,6.692431845664978,-26.5116975,Drive
18,0.004943033,0.092496925,-0.020102126,9.916519137,0.2212141307378278,0.069023059,-0.128234928,-0.001294344,-0.008175271,-22.55555556,-44.96224514,37.62638526916504,-56.36363289,-0.73469521,-0.007868199,0.001108403,0.6781115919640921,-0.009002062,-0.013058669,1.6507962467600998,9.916519137,0.2212141307378278,0.069023059,-0.14946187,0.012144295996036922,-0.007717136,12.163396835327148,0.8237718343734741,1.0731397867202759,3.9000000953674316,0.8916618824005127,287.27484130859375,160.39999389648438,-86.9157231,40.3847261,13.117317705154418,4.086999943256378,-24.68316145,Drive
19,0.009994664,0.019037631,0.030343304,9.938983778,0.2003233956480489,0.14464090209543587,-0.047448895,-0.001922983,-0.001770271,-23.375,-45.02702721,36.42736915588379,-55.41801086,-0.761576629,-0.010711163,0.001571843,0.6479581548172293,-0.011485815,-0.018363855,1.731556651661697,9.938983778,0.2003233956480489,0.14464090209543587,-0.068675838,0.011515657,-0.001312135,15.28166389465332,0.9183681011199951,1.0336674451828003,3.9000000953674316,0.6987264156341553,292.8142395019531,160.39999389648438,-86.9157301,40.384732,13.05387770652771,2.8881059384346006,-23.73717356,Drive
20,0.010896293862352094,-0.119266433,0.065850908,9.960397183316426,-0.041101956,0.298577223,-7.75E-04,-0.002255094,-1.45E-04,-22.25,-45.04386322,36.211063385009766,-55.24367298,-0.763264354,-0.010563898,-0.006255125,0.645950211,-0.02318089,-0.00803341,1.7368329381479801,9.960397183316426,-0.041101956,0.298577223,-0.022002363,0.011183545703194964,3.128368373580494E-4,18.620431900024414,0.840595007,1.043631911277771,3.9000000953674316,0.39669203758239746,293.8687438964844,160.39999389648438,-86.9157347,40.3847339,13.03630973815918,2.671311957836151,-23.56368963,Drive
21,-0.011310339,-0.03757569,0.007538696,9.932827477316254,-0.091934918,0.32295555433312667,5.168706892828385E-4,-0.002090977,4.5813551808420854E-4,-21.11111111,-45.04703506,36.15177135467529,-55.223787,-0.758662689,-0.008177028,-0.013798121,0.6512835461359757,-0.031590634,0.005567215,1.7229081495450094,9.932827477316254,-0.091934918,0.32295555433312667,-0.020710072,0.011347662739213914,9.162708637841905E-4,45,0.086023256,1.0535756349563599,3.878000020980835,0.3946084976196289,293.8853759765625,160.39999389648438,-86.9157373,40.3847341,13.032405710220337,2.6115319609642027,-23.54429148,Drive
22,-0.021653703,-0.009131913,-0.002299028,9.893374998592636,-0.091301866,0.330508627,2.2091316646959597E-4,-0.001590872,3.64729172767149E-4,-23.88888889,-45.75487907,36.610125389099125,-56.01825096,-0.755370455,-0.007859834,-0.015388147,0.6550684015727738,-0.033551958,0.008287374,1.7129246552013657,9.893374998592636,-0.091301866,0.330508627,-0.021006029,0.011847768175569408,8.228646181026492E-4,45,0.086023256,1.0635732412338257,3.881000042,0.3864121437072754,293.8266296386719,160.39999389648438,-86.9157392,40.3847344,12.32529372215271,3.0701299595832823,-24.33838955,Drive
23,0.002827792,0.028470491,-0.013315135,9.903602563,-0.055804457,0.32901020847188617,-4.31E-04,-0.002089038,6.138124736025929E-4,-23.125,-45.49745884,36.72334140777588,-56.62715286,-0.752518757,-0.008172833,-0.015806378,0.6583291714631238,-0.034558691,0.008511525,1.7042675747454745,9.903602563,-0.055804457,0.32901020847188617,-0.02165839,0.011349601504953524,0.001071948,45,0.086023256,1.073576807975769,3.881000042,0.3693590760231018,293.9847106933594,160.39999389648438,-86.9157403,40.3847349,12.582957792282105,3.1839559435844422,-24.9476576,Drive
24,0.025364338772968183,0.3393652698079359,0.077192538,9.932885531082894,0.5995821174849005,0.42999661663203564,-0.033405339,-0.00264651,0.001669452,-16.44444444,-46.11416927,36.79349128723145,-56.86078293,-0.756543584,-0.021561429,-0.004898527,0.6535419827526056,-0.035593114,-0.026237044,1.716158547447723,9.932885531082894,0.5995821174849005,0.42999661663203564,-0.054632281,0.010792129258263531,0.002127587,45,0.086023256,1.0323549509048462,3.881000042,0.34580689668655396,295.7147216796875,160.39999389648438,-86.9157407,40.3847362,11.966613759994507,3.253495934009552,-25.1812875,Drive
25,0.011037502473997839,-0.027094191,0.22893629447349068,9.941410202246447,0.3114925899471228,0.6443796623498201,-0.151150595,-8.55E-04,-0.00325291,-15.25,-47.11029922,35.82322517395019,-56.34057487,-0.78231335,-0.026365519,-0.005711241,0.6219570602028115,-0.041775738,-0.034180165,1.7974822139277042,9.941410202246447,0.3114925899471228,0.6443796623498201,-0.172377538,0.012583157007505629,-0.002794774,59.99039840698242,0.840595007,1.0423954725265503,3.878000020980835,0.321401983,159.79617309570312,160.39999389648438,-86.9157391,40.3847334,10.968775768280029,2.283229961395264,-24.66132347,Drive
26,-0.004045949,0.050350101,0.36283403143142035,9.917674897943886,0.42242031365416005,0.8029110530047741,-0.268053715,0.002726573,-0.009420688,-19.22222222,-47.81448296,33.53096729278565,-52.97764496,-0.840787312,-0.02729551,-0.008753819,0.5392967057459562,-0.044118189,-0.036598933,2.000145692269779,9.917674897943886,0.42242031365416005,0.8029110530047741,-0.289280657,0.016165213,-0.008962553,10.249506950378418,0.7742092609405518,1.0523359775543213,3.9000000953674316,0.7607682347297668,146.41937255859375,160.39999389648438,-86.9157344,40.3847276,10.26605580329895,-0.008661997,-21.29790554,Drive
27,-0.013734262,0.2307507858693021,0.33231227606245617,9.879427511715194,1.0829816541625459,1.0565096012596946,-0.355043107,0.005585101,-0.017272744,-25.875,-47.52583134,32.185307540893554,-48.90943317,-0.912072621,-0.053856302,-0.016364711,0.4029544730788296,-0.073080074,-0.085759573,2.306409750169921,9.879427511715194,1.0829816541625459,1.0565096012596946,-0.376270049,0.019023740939904474,-0.016814609,23.372499465942383,0.840595007,1.0623947381973267,3.9000000953674316,1.1345845460891724,151.45785522460938,160.39999389648438,-86.9157286,40.3847156,10.553487825393677,-1.353955994,-17.22871766,Drive
28,-0.024586224,-0.229968616,-0.244737031,9.879006376544249,0.6853578366990228,0.2241296588388968,-0.166949597,0.010851435,-0.003644327,-19,-47.67735497,32.384045372009275,-43.91585129,-0.960690814,-0.051274346,-0.010294576,0.271238632,-0.048083111,-0.092573177,2.5888696040921997,9.879006376544249,0.6853578366990228,0.2241296588388968,-0.188176539,0.024290074603925956,-0.003186191,21.99720001220703,0.8736703991889954,1.0723134279251099,3.9000000953674316,1.6588486433029175,172.0641326904297,160.39999389648438,-86.9157272,40.3846968,10.403305797576904,-1.156071966,-12.23635576,Drive
29,0.024187665719252367,0.054028251996407144,-0.077159694,9.948200772,0.8533665124073769,-0.073074016,0.036310171,0.00868108,0.002255436,-14,-47.2531612,32.53691135406494,-43.11199318,-0.965792325,-0.038684402,0.010000690282770218,0.25609517398361975,-5.37E-04,-0.079969183,2.623193756892131,9.948200772,0.8533665124073769,-0.073074016,0.015083228551352827,0.022119719239596564,0.002713571,13.131915092468262,0.8321658372879028,1.082267404,3.9000000953674316,2.7608108520507812,184.4295196533203,160.39999389648438,-86.9157344,40.3846674,10.825913734436035,-1.003693957,-11.43139979,Drive
30,0.054092361,-0.252017046,-0.037624925,10.002608447398954,0.35453849067590515,-0.108173589,0.037512249,-0.009442928,0.00612923,-16.22222222,-47.40517319,32.65878936767578,-43.804953,-0.959544647,-0.028256567,0.011872584940594377,0.2796990689143394,0.007091623,-0.060898302,2.5745613112032992,10.002608447398954,0.35453849067590515,-0.108173589,0.016285307,0.003995712,0.006587365,5.219252109527588,0.8591274619102478,1.0924358367919922,3.9000000953674316,3.600759983062744,182.46226501464844,160.39999389648438,-86.9157423,40.3846293,10.675365734100343,-0.880717968,-12.12472574,Drive
31,0.14974640411080667,-0.208944184,-0.183203539,10.072340108815906,0.1928661523649053,-0.169027945,0.059324834,-0.025763818,-0.006123299,-13.88888889,-47.73176716,32.463711433410644,-44.88404312,-0.952660932,-0.019517496,0.005439429,0.30319800220646903,-0.001431005,-0.040465562,2.5253182614891276,10.072340108815906,0.1928661523649053,-0.169027945,0.038097891,-0.012325178,-0.005665164,4.100438594818115,0.8761849403381348,1.102237343788147,3.9000000953674316,4.872668266296387,177.00018310546875,160.39999389648438,-86.9157467,40.3845838,10.34864984512329,-1.075307969,-13.20540174,Drive
32,-0.007806556,-0.491186595,-0.869663728,9.899963939074174,-0.139297704,-0.669740601,0.18206361905463692,-0.011245817,0.009984091,-18.625,-47.64453701,32.22507926940918,-47.43530712,-0.932181593,-0.02018227,-0.003039479,0.36034867196407133,-0.020179474,-0.035498612,2.403484483367031,9.899963939074174,-0.139297704,-0.669740601,0.1608366766600933,0.002192823,0.010442226352644813,4.3506855964660645,1.0640019178390503,1.1122751235961914,3.9000000953674316,5.420152187347412,173.00132751464844,160.39999389648438,-86.9157506,40.3845299,10.434903831481934,-1.315281981,-15.75446967,Drive
33,-0.080211547,-0.572858909,-1.343585651,9.830428701180677,-0.3260681,-1.464715195,0.29160098688116354,0.001765823,0.007232313,-15,-47.83571106,32.870093231201174,-50.14346302,-0.878511446,-0.007889484,0.011217156343740745,0.4755322305322851,0.012330542450620412,-0.025057288,2.149453067085118,9.830428701180677,-0.3260681,-1.464715195,0.27037404477596283,0.015204463,0.007690448,4.238335132598877,1.0928860902786255,1.1223300695419312,3.9000000953674316,5.746541976928711,163.03939819335938,160.39999389648438,-86.915743,40.3844788,10.24421778678894,-0.670023977,-18.46347973,Drive
34,0.22645365150229443,-0.659040418,-1.050590114,10.089113059553128,-0.450826371,-1.556772146,0.3177310163245618,-0.029547512,0.029649814595332714,-18.625,-47.27548695,34.49244941711426,-54.8858469,-0.791283181,0.007317903,0.026789432,0.6090175121733286,0.051047233087055895,-0.020998233,1.8301938343973994,10.089113059553128,-0.450826371,-1.556772146,0.2965040736406752,-0.016108872,0.030107949516799265,4.552592754364014,1.1482595205307007,1.1322836875915527,3.9000000953674316,6.341790199279785,144.19659423828125,160.39999389648438,-86.915714,40.3844228,10.80444179534912,0.9519659730792046,-23.20610752,Drive
35,0.091272363,-0.60410484,-0.628594551,10.002170034982626,-0.461556322,-1.439910063,0.27263506903376394,0.008574101,-0.002031215,-16.77777778,-43.5742511,34.83685516357422,-57.57167679,-0.688321387,0.024562836868815052,0.032711427,0.7226628429681352,0.081486989,-0.014567595,1.522495682957103,10.002170034982626,-0.461556322,-1.439910063,0.251408126,0.022012740931387775,-0.00157308,4.590995788574219,1.059999942779541,1.1424908638000488,3.9000000953674316,6.165053367614746,119.25176239013672,160.39999389648438,-86.9156606,40.3843814,14.505433702468872,1.2960059744119645,-25.89096151,Drive
36,0.031369292,-0.22094267,0.20063854123537356,10.015417663796434,-0.337524478,-0.939153844,0.25699049033797705,-0.009186203,0.012475380632587565,-15.875,-40.76288315,38.796731338500976,-59.53514503,-0.563787465,0.050323261,0.027663643,0.8229893027589872,0.11436262612159435,0.011842740260852644,1.200585084465834,10.015417663796434,-0.337524478,-0.939153844,0.23576354837188354,0.004252437,0.012933515937430248,4.617927074432373,1.0346497297286987,1.1523741483688354,3.9000000953674316,6.1718950271606445,105.09326934814453,160.39999389648438,-86.9155982,40.3843544,17.317411613464355,5.257101910114288,-27.8543074,Drive
37,0.037066849,-0.099516291,0.4733139279397946,10.011993963741562,-0.134044531,-0.183004469,0.11226097552232372,9.236843737737429E-4,0.007505119,-17.77777778,-40.37833939,42.32899715423584,-60.88824661,-0.495233134,0.029403898,0.014823731975358667,0.8680149837605005,0.065714184,0.003463728,1.0368247715014856,10.011993963741562,-0.134044531,-0.183004469,0.091034033,0.014362323839325928,0.007963254,4.673953533172607,1.0539449453353882,1.1623263359069824,3.9000000953674316,6.332370281219482,85.08887481689453,160.39999389648438,-86.9155268,40.3843431,17.700857677459716,8.787781863212585,-29.2092395,Drive
38,0.050764111639226527,0.17112779675178158,0.45897223127698433,10.04793270814766,0.31638109897380895,0.090247745,0.058897833366995875,-0.011530483,0.014870869076033168,-15.5,-40.06467731,43.979047241210935,-61.44176079,-0.466898807,0.012912362524041526,0.015055966445977249,0.8840294381947194,0.036875184,-0.014507667,0.972033504,10.04793270814766,0.31638109897380895,0.090247745,0.037670891,0.001908156,0.015329004420776789,4.425253868103027,1.0520931482315063,1.1724252700805664,3.9000000953674316,6.468716144561768,79.02845001220703,160.39999389648438,-86.9154474,40.3843454,18.014397583007813,10.439417800903321,-29.76165543,Drive
39,-0.095013327,0.004735347,0.4484821959461981,9.985582874816599,0.49540140496304674,0.5818043735637827,-0.003135781,0.004707379,0.00325884,-18.22222222,-39.86215748,43.74675914764404,-61.77360085,-0.469879921,-0.017264538,0.018345484736113294,0.882348373,-0.013226829,-0.048631115,0.9783462991992247,9.985582874816599,0.49540140496304674,0.5818043735637827,-0.024362724,0.018146018778511946,0.003716975,3.6047754287719727,1.0020978450775146,1.182317852973938,3.9000000953674316,6.903255462646484,77.99527740478516,160.39999389648438,-86.9153672,40.3843445,18.218015594482424,10.205909843444823,-30.09337343,Drive
40,-0.13611437,-0.014480033,0.14159382416785343,9.892265338,0.39585971902124584,0.46059535241399246,0.001288413,-0.016227484,0.004124702,-26.33333333,-39.83019318,44.01674507141113,-61.82545094,-0.476431467,-0.023576344,0.010403558557618011,0.878802731,-0.031553347,-0.040792864,0.9929128763745132,9.892265338,0.39585971902124584,0.46059535241399246,-0.019938529,-0.002788844,0.004582837,2.6159727573394775,0.9440339207649231,1.1924171447753906,3.9000000953674316,7.579013824462891,81.98161315917969,160.39999389648438,-86.9152769,40.3843408,18.24997972488403,10.477481803894044,-30.14571129,Drive
41,0.007734521,-0.057509021,0.048959767644845165,9.986939004324014,0.3588537035455692,0.5791443907520146,7.072187749922131E-4,0.002489351,0.002037146,-22.5,-39.74345097,43.748101234436035,-62.05725071,-0.481605043,-0.033359721,0.005361067,0.8757354223612442,-0.053336311,-0.041534336,1.0044916277950249,9.986939004324014,0.3588537035455692,0.5791443907520146,-0.020519723,0.015927990492731695,0.002495281,1.858878254890442,0.9323626160621643,1.202399730682373,3.9000000953674316,8.092051506,83.99204254,160.39999389648438,-86.9151793,40.3843384,18.33733171463013,10.208349819183349,-30.37738941,Drive
42,-0.021512393,-0.057891107,0.005841386,9.902481634639999,0.2960479158763457,0.5996489006917454,2.0905209476923913E-4,-0.011981205,0.001147563,-18.66666667,-39.46260719,43.847530937194826,-62.68823475,-0.485011242,-0.034955197,0.001495657,0.8738032718306606,-0.059715231,-0.036534071,1.0123502976686052,9.902481634639999,0.2960479158763457,0.5996489006917454,-0.02101789,0.001457434,0.001605698,1.9872068166732788,0.974525511,1.2123905420303345,3.9000000953674316,8.237856865,83.00002289,160.39999389648438,-86.9150848,40.384342,18.617443561553955,10.307535734176636,-31.00690935,Drive
43,0.054011391,-0.094172228,0.052995763068060274,9.978569928882191,0.22415288808547612,0.7825894876591211,-0.008639337,-0.004639177,0.004468674,-15.75,-39.48127335,43.72455516815185,-61.85424282,-0.490477182,-0.03959242,-0.004293937,0.8705386091204523,-0.073249586,-0.031372582,1.0250241629128318,9.978569928882191,0.22415288808547612,0.7825894876591211,-0.02986628,0.008799462,0.004926809,2.1038854122161865,0.9885848760604858,1.2222933769226074,3.9000000953674316,8.535306930541992,81.99816131591797,160.39999389648438,-86.9149895,40.3843486,18.598289604187013,10.184193773269653,-30.17450338,Drive
44,0.008013551,-0.058578778,-0.031729544,9.911907714547462,0.1959442969013765,0.7152710241600148,-4.23E-04,0.006590102,-0.00355936,-16.11111111,-39.49932926,43.33940113067627,-62.08201668,-0.495431574,-0.039020727,-0.007493873,0.867733431,-0.075244283,-0.025657333,1.0365976553696852,9.911907714547462,0.1959442969013765,0.7152710241600148,-0.021649836,0.020028741918884825,-0.003101225,1.6721702814102173,0.954253614,1.2323812246322632,3.9000000953674316,9.150197029,83.99151611328125,160.39999389648438,-86.9148778,40.3843449,18.579989700317384,9.798429813,-30.40117933,Drive
45,-0.026783814,-0.007184643,-0.001299304,9.885023348539779,0.1895905395888371,0.6536703601624202,-0.002613893,1.037863164561466E-5,-0.003501993,-17.25,-39.70026325,43.576324996948244,-61.9361047,-0.498973809,-0.033520432,-0.007879876,0.865929658,-0.065980534,-0.019804179,1.0448586107457725,9.885023348539779,0.1895905395888371,0.6536703601624202,-0.023840835,0.013449018,-0.003043858,1.2511827945709229,0.9121403694152832,1.2423536777496338,3.9000000953674316,9.307518005371094,85.99741364,160.39999389648438,-86.9147607,40.3843357,18.379909610748292,10.037061815261842,-30.25526739,Drive
46,0.062580062,-0.010407855,-0.013149025,9.964622367932959,0.18222622112687498,0.7223739898899226,-0.005591032,-0.013404539,0.005227785,-19.11111111,-39.51335941,43.513129234313965,-62.08238277,-0.504525341,-0.03688619,-0.010336573,0.8625411946796676,-0.074141678,-0.019398431,1.0578060902438118,9.964622367932959,0.18222622112687498,0.7223739898899226,-0.026817974,3.4100842295955974E-5,0.00568592,1.0602498054504395,0.9121403694152832,1.2523829936981201,3.9000000953674316,9.457930564880371,85.99916076660156,160.39999389648438,-86.914645,40.3843318,18.56620361328125,9.973499774932861,-30.40178944,Drive
47,0.020996973,-0.012676644,0.0044761,9.912244593055503,0.18776397893060615,0.7861322623144076,-0.006302698,0.006166296,-4.89E-04,-15.5,-39.27423923,42.998899116516114,-62.35480869,-0.510426212,-0.039047227,-0.011444365,0.8589549035701937,-0.078861795,-0.0201988,1.071550979197604,9.912244593055503,0.18776397893060615,0.7861322623144076,-0.02752964,0.019604935394984317,-3.11E-05,0.9643678665161133,0.9121403694152832,1.2623828649520874,3.9000000953674316,9.696648597717285,85.99867248535156,160.39999389648438,-86.9145278,40.3843321,18.80556770324707,9.459025783538818,-30.67482538,Drive
48,0.023571958819639336,-0.019172675,-0.015592722,9.921168987567608,0.1642189588299236,0.7237425681131964,-0.008319087,0.012168018071622886,-0.00250566,-14.88888889,-39.7523571,43.169943237304686,-61.91182678,-0.517287326,-0.03638214,-0.011494324,0.8549550326125136,-0.074186062,-0.017978177,1.0875727111853442,9.921168987567608,0.1642189588299236,0.7237425681131964,-0.02954603,0.025606658133944877,-0.002047524,0.9675440192222595,0.9183136820793152,1.2723634243011475,3.9000000953674316,9.867610931396484,85.99906921386719,160.39999389648438,-86.9144068,40.3843318,18.328059673309326,9.630191850662232,-30.23196531,Drive
49,-0.028676135,-0.031994002,-0.124184331,9.902745857979488,0.10733435651879686,0.5030096522306354,4.344131951265543E-4,9.829898147834736E-4,-0.004284827,-20.125,-39.92559715,43.174090995788575,-61.38820286,-0.522277406,-0.030887797,-0.010383175,0.8521517706148832,-0.063538069,-0.014567369,1.0992273219580788,9.902745857979488,0.10733435651879686,0.5030096522306354,-0.020792529,0.014421629489996262,-0.003826691,0.9421555399894714,0.9526804089546204,1.282339096069336,3.9000000953674316,10.037238121032715,86.99868011,160.39999389648438,-86.914286,40.3843353,18.154331645965577,9.634217863082887,-29.70797539,Drive
50,0.027053397836037052,-0.041831716,-0.117729172,9.957946305136078,0.077151108,0.45853334911239957,0.009852136,0.001066018,-3.23E-04,-16.44444444,-39.79578907,43.33195915222168,-61.41272488,-0.520951215,-0.027819,-0.010162052,0.8530697782062789,-0.058087707,-0.011649734,1.0961296512085257,9.957946305136078,0.077151108,0.45853334911239957,-0.011374806,0.014504657263157762,1.3492010913572264E-4,0.9804598093032837,0.954253614,1.2923043966293335,3.9000000953674316,10.24692153930664,85.99945831298828,160.39999389648438,-86.9141639,40.3843381,18.284383678436278,9.792329826,-29.73335144,Drive
51,-0.006471282,-0.007638516,-0.017655836,9.928538442815391,0.077517001,0.44516955511373224,0.005036525,0.001884434,0.001965979,-15.77777778,-39.69745724,43.46164524078369,-61.60658283,-0.519320985,-0.022352606,-0.008215405,0.854246379,-0.046741269,-0.009181028,1.092243839236139,9.928538442815391,0.077517001,0.44516955511373224,-0.016190418,0.015323074,0.002424115,1.0051084756851196,1.0360019207000732,1.3023004531860352,3.9000000953674316,9.847350120544434,86.00288391113281,160.39999389648438,-86.9140469,40.384345,18.381983585357666,9.921771803,-29.92635542,Drive
52,-0.012410214,-0.025046851,0.014084550193869151,9.914602548173331,0.063026486,0.4984969729964522,7.165708073164121E-4,0.008093726,-0.004616596,-16.375,-39.98318119,43.48018905639648,-61.41235863,-0.521246019,-0.022951782,-0.008995441,0.8530454882062398,-0.048557344,-0.008578873,1.0967846283545861,9.914602548173331,0.063026486,0.4984969729964522,-0.020510371,0.021532366200027846,-0.00415846,0.9337060451507568,0.9340770840644836,1.3124178647994995,3.9000000953674316,10.254022598266602,85.99775695800781,160.39999389648438,-86.9139256,40.3843476,18.096381740570067,9.939949779510497,-29.73225351,Drive
53,0.044200156,-0.062174872,-0.028774913,9.983012912342849,0.030273272073827684,0.3642927285790154,0.00146633,-0.007616316,0.007362785,-15.55555556,-40.25304535,43.45151924133301,-61.00256077,-0.52300723,-0.019273072,-0.006377637,0.8520847883039308,-0.039526962,-0.009292205,1.100820360831844,9.983012912342849,0.030273272073827684,0.3642927285790154,-0.019760612,0.005822323,0.007820921,0.9202102422714233,0.9526804089546204,1.3224469423294067,3.9000000953674316,10.565263748168945,85.99827575683594,160.39999389648438,-86.9137965,40.3843523,17.827005634307863,9.911401815414429,-29.32233339,Drive
54,0.07830811,-0.017206149,-0.130233228,10.001754732965265,0.080551587,0.32182303051581806,0.013113941739028483,-0.008754983,0.003590952,-14.125,-40.18338322,43.633421173095705,-61.36673058,-0.522331066,-0.02197391,-0.007694425,0.8524205395318929,-0.045521119,-0.009839804,1.0992819047668605,10.001754732965265,0.080551587,0.32182303051581806,-0.008113,0.004683657,0.004049087,0.9564831256866455,1.0280077457427979,1.3323074579238892,3.9000000953674316,10.226526260375977,85.00376892089844,160.39999389648438,-86.9136734,40.3843607,17.896301555633546,10.093913755416871,-29.68613745,Drive
55,-0.064855714,-0.006444119,-0.036862016,9.822424815251278,0.17120473339365652,0.5237549394727327,0.007835747,-0.006276011,-0.004782993,-17.33333333,-39.75516304,43.50532123565674,-61.79531666,-0.520398422,-0.028799138,-0.007137959,0.8534050699576591,-0.056623213,-0.01779202,1.0946714692902797,9.822424815251278,0.17120473339365652,0.5237549394727327,-0.013391195,0.007162629,-0.004324858,0.8624153137207031,0.9200543165206909,1.3423852920532227,3.9000000953674316,10.663704872131348,84.99716186523438,160.39999389648438,-86.913551,40.3843648,18.324887599945068,9.965813798904419,-30.11594343,Drive
56,0.10337799035229729,-0.044457733,-0.116992709,9.972320667748312,0.10443915876116856,0.32242994609026654,0.013291858412433886,8.154534327897054E-5,0.005073591,-18.625,-40.02746731,43.91206901550293,-61.438223,-0.518372137,-0.023022166,-0.005089273,0.8548258618243689,-0.044657505,-0.015166469,1.0898948734246412,9.972320667748312,0.10443915876116856,0.32242994609026654,-0.007935084,0.013520184964805082,0.005531726,0.8798445463180542,0.9386159777641296,1.3523874282836914,3.9000000953674316,10.837291717529297,84.99879455566406,160.39999389648438,-86.9134292,40.3843645,18.05270565032959,10.371829833984375,-29.75714128,Drive
57,0.065959458,-0.033504203,-0.184572159,9.937595673,0.11337739554713074,0.381271896,0.021345553424625286,-0.01309615,0.002713229,-16.55555556,-39.64633926,44.19937900543213,-61.9918589,-0.513159233,-0.028762273,-0.008114938,0.8577666803471093,-0.057712211,-0.0155902,1.077813342936988,9.937595673,0.11337739554713074,0.381271896,1.1861110467789243E-4,3.4248979041099693E-4,0.003171365,0.8272942304611206,0.9121403694152832,1.3623467683792114,3.9000000953674316,10.97803020477295,84.99913787841797,160.39999389648438,-86.9132988,40.3843616,18.43261365890503,10.65938380241394,-30.31236349,Drive
58,0.094150603,-0.083175034,-0.280608895,9.962261514756285,0.035317365,0.068288372,0.046882527,0.006367934,-1.81E-04,-13.875,-39.71612316,44.993599014282225,-61.93988663,-0.498266555,-0.018123653,-0.003537807,0.8667875482040701,-0.034954619,-0.011982372,1.0432218533117794,9.962261514756285,0.035317365,0.068288372,0.025655585,0.019806574184664534,2.772534159871126E-4,0.9035338163375854,0.9667471051216125,1.3723480701446533,3.9000000953674316,11.000365257263184,83.00178527832031,160.39999389648438,-86.9131634,40.3843708,18.364171714782714,11.45372579574585,-30.26112349,Drive
59,0.048526241,-0.070702533,-0.144737557,9.976406439994145,0.062344065,0.14369712966195877,0.039705071795301944,-0.003042489,0.005109972,-16.66666667,-39.63377316,45.77354488372803,-62.1670509,-0.480842777,-0.015897172,-0.00139875,0.8766472752277668,-0.029225057,-0.012835805,1.0031972286792903,9.976406439994145,0.062344065,0.14369712966195877,0.018478129618765358,0.010396150500477793,0.005568108,0.9776960015296936,0.9840731620788574,1.3824058771133423,3.9000000953674316,11.158706665039062,80.00236511230469,160.39999389648438,-86.9130353,40.3843839,18.446277713775636,12.232573766708374,-30.48657934,Drive
60,-0.012784847,-0.058631458,-0.063722889,9.946417780755793,0.039194086,0.14037796154220417,0.037405499,0.015002823950162211,-0.001521188,-17.66666667,-39.73796108,46.60265724182129,-62.15485073,-0.465633889,-0.011358274,-4.44E-04,0.8848837793452068,-0.020507615,-0.009824309,0.9686815941218033,9.946417780755793,0.039194086,0.14037796154220417,0.016178556573260755,0.028441463647414796,-0.001063052,1.0126075744628906,1.0360019207000732,1.3923399448394775,3.9000000953674316,11.230104446411133,78.00322723388672,160.39999389648438,-86.9128999,40.3843987,18.343309745788574,13.062661781311036,-30.47413542,Drive
61,-0.053861312,-0.027816146,0.010989689005954751,9.916359429,0.006141771,-0.017295694,0.030680248188306985,0.023922380136814223,-0.003798521,-16.75,-40.03673923,47.47971504211426,-61.38539673,-0.452987075,5.013470811197462E-4,0.002148068,0.891496935,0.002846748,-0.003405293,0.9402411528004025,9.916359429,0.006141771,-0.017295694,0.009453306,0.037361019611973495,-0.003340386,0.9761454463005066,0.9621330499649048,1.402382493019104,3.9000000953674316,11.467803955078125,76.00087738,160.39999389648438,-86.9127661,40.3844169,18.043311595916748,13.939475746154786,-29.70504744,Drive
62,0.072732425,-0.026132307,0.065709571,9.970787400180853,-0.037762459,-0.055705724,0.022579109,-0.004010538,-5.25E-04,-15.77777778,-40.22925522,48.22489086151123,-60.85969875,-0.444372459,0.00575225,0.002200302,0.895816639,0.012265065540243121,0.00117472,0.9209648486479972,9.970787400180853,-0.037762459,-0.055705724,0.001352167,0.009428101,-6.67E-05,0.9368162751197815,0.9621330499649048,1.412271499633789,3.9000000953674316,11.714258193969727,75.03244781,160.39999389648438,-86.9126281,40.3844395,17.851771697998046,14.685383701324463,-29.17861752,Drive
63,-0.053215055,-0.149337712,-0.037930523,9.864975076455336,-0.151952865,-0.083360535,0.034202998,0.001742101,-0.00207866,-18.875,-40.03564121,48.768157119750974,-61.22094078,-0.433941419,0.002101016,0.00100568,0.900920376,0.004677497,1.3809434976880845E-5,0.8977393328564839,9.864975076455336,-0.151952865,-0.083360535,0.012976056371716041,0.015180740637130565,-0.001620524,0.8731051683425903,0.9200543165206909,1.422391653060913,3.9000000953674316,11.842235565185547,74.07915496826172,160.39999389648438,-86.912488,40.3844649,18.045385723114013,15.22767373085022,-29.54083557,Drive
64,0.079171264,-0.211318651,0.2694400757081011,10.010489676762553,-0.306943389,0.22153646318276993,0.005665163,0.002963795,0.001942257,-18.44444444,-40.1520293,49.313985137939454,-61.13005089,-0.426938854,0.004323236,-0.003453505,0.9042601492798444,0.004869014,0.009936887,0.8822015170912141,10.010489676762553,-0.306943389,0.22153646318276993,-0.015561779,0.016402435190613986,0.002400392,0.8390845060348511,0.9280086159706116,1.432361125946045,3.9000000953674316,11.931605339050293,72.29413604736328,160.39999389648438,-86.9123494,40.3844958,17.92777763366699,15.77362374305725,-29.44982347,Drive
65,0.034569388,-0.186310869,0.17929392195876362,9.966321204472514,-0.482839088,0.29492410194598934,-0.003289976,-0.009134539,0.004160285,-14.75,-39.71502541,49.10853694915772,-60.71769077,-0.429184377,0.001278601,-0.015785362,0.9030612539319158,-0.011250211,0.029603115698883256,0.8875000395821137,9.966321204472514,-0.482839088,0.29492410194598934,-0.024516918,0.004304101,0.00461842,0.8111120462417603,0.9121403694152832,1.4423655271530151,3.9000000953674316,11.928777694702148,71.22884368896484,160.39999389648438,-86.9122126,40.3845273,18.365513534545897,15.568297729492187,-29.03782942,Drive
66,-0.034809265,-0.183013585,0.1645043703537543,9.87316376,-0.62281921,0.3676699759275879,-0.005270782,0.009890685,-0.007807577,-17,-38.94947521,48.802561111450196,-60.24811275,-0.432731343,2.283872437650096E-4,-0.024182758,0.9011925036467395,-0.02054535,0.043801364,0.8957710480227054,9.87316376,-0.62281921,0.3676699759275879,-0.026497724,0.023329324,-0.007349441,0.7505514025688171,0.9121403694152832,1.4523680210113525,3.9000000953674316,11.688276290893555,72.04103851,160.39999389648438,-86.9120779,40.3845587,19.131673698425292,15.263297719955444,-28.56898333,Drive
67,0.048324603,-0.262598171,0.4476279795456391,9.949222981351094,-0.823366206,0.9191197659639478,-0.052156958,-0.01027868,0.002067483,-19,-38.91507114,48.24611923217773,-60.25287094,-0.447477596,-0.008253301,-0.035899089,0.8934044912457466,-0.047053249,0.056565903,0.9300965156692725,9.949222981351094,-0.823366206,0.9191197659639478,-0.0733839,0.00315996,0.002525619,0.7378692030906677,0.9183136820793152,1.4623774290084839,3.878000020980835,11.334778785705566,73.09857177734375,160.39999389648438,-86.9119508,40.3845864,19.165101604461668,14.706245765686035,-28.57227741,Drive
68,3.3934139510960256E-5,0.037683195,0.283408356,9.888208907784767,-0.657549987,1.251489803629014,-0.015506921,-0.023296706,-0.002493798,-13.55555556,-38.93825119,46.95182113647461,-60.71183479,-0.479115307,-0.0259052,-0.054070711,0.8756262810484877,-0.097593823,0.069859719,1.004758700005059,9.888208907784767,-0.657549987,1.251489803629014,-0.036733863,-0.009858066,-0.002035663,0.7540922164916992,0.9360021352767944,1.4724314212799072,3.878000020980835,10.739827156066895,75.16930389404297,160.39999389648438,-86.9118336,40.3846109,19.14131160736084,13.412557725906373,-29.03148535,Drive
69,0.052378501706910364,-0.095573083,1.4861280744515577,9.938170632112373,-0.715506242,3.0009916314800966,-0.143689955,-6.18E-04,0.007279757,-41.25,-48.75827511,50.98379890441895,-70.54918243,-0.48297063,-0.051065995,-0.064416552,0.8708597959823978,-0.151950429,0.061911688,1.0173886852356995,9.938170632112373,-0.715506242,3.0009916314800966,-0.164916897,0.012824827,0.007737893,0.798177958,0.9521029591560364,1.4823275804519653,3.881000042,10.03350830078125,79.10472869873047,160.39999389648438,-86.9117242,40.3846257,9.320799779891967,17.443803672790526,-38.86919931,Drive
70,-8.63E-05,-0.205527012,0.075910169,9.883027626917912,-0.569129415,2.3720407497424345,-0.250855102,0.003343351,-0.002944521,-29.33333333,-50.746143,45.12999500274658,-72.66832199,-0.592351804,-0.080595017,-0.082593277,0.7966088426923289,-0.228471292,0.036017573827389376,1.2829048784033765,9.883027626917912,-0.569129415,2.3720407497424345,-0.272082044,0.016781990606794406,-0.002486386,0.8756210207939148,1.0789810419082642,1.4924213886260986,3.878000020980835,9.454717636108398,81.28385162353516,160.39999389648438,-86.9116177,40.3846275,7.334029836654663,11.589755764007569,-40.98846146,Drive
71,0.063772132,-0.11079652,-0.781664032,9.880414833,-0.44185038,1.1001292527879325,-0.115199567,-8.91E-04,-0.002007493,-22.44444444,-50.83727711,42.00045124053955,-72.34429031,-0.663031001,-0.060062897,-0.075786212,0.7420592585813652,-0.191019086,0.033196184,1.461537615766803,9.880414833,-0.44185038,1.1001292527879325,-0.136426509,0.012547573777146239,-0.001549358,0.9516265392303467,1.0872442722320557,1.5023486614227295,3.881000042,8.668824195861816,94.89794158935547,160.39999389648438,-86.9115228,40.3846121,7.243749890327454,8.459601831436157,-40.66418533,Drive
72,0.084468832,-0.066458669,-0.956683945,9.956683121838616,-0.293538937,0.079715263,0.011370358369267971,0.006581435,-0.004332271,-30.375,-50.87375484,40.37528926849365,-71.82713249,-0.678325898,-0.030730556,-0.044100863,0.7324618581429269,-0.10510482,0.022763778139086602,1.4952626193611367,9.956683121838616,-0.293538937,0.079715263,-0.009856584,0.020020074316173864,-0.003874136,1.023131012916565,0.9602082967758179,1.5123934745788574,3.9000000953674316,8.263556480407715,104.09966278076172,160.39999389648438,-86.9114388,40.3845788,7.206173877716065,6.835049872398376,-40.14788124,Drive
73,0.017786674,0.010634999613738755,-0.440200818,9.912964765307972,-0.260556316,-0.623594552,0.11253378120730224,0.00728124,-0.001189076,-38.44444444,-50.80287331,41.819159240722655,-71.89411079,-0.650447565,0.015761781862520984,-0.004724539,0.7590734443618256,0.017793746821853435,0.027263531,1.416730942078007,9.912964765307972,-0.260556316,-0.623594552,0.091306839,0.02071988,-7.31E-04,1.090677023,0.9200543165206909,1.5223112106323242,3.9000000953674316,7.834789752960205,106.16158294677734,160.39999389648438,-86.9113562,40.3845436,7.277421879768371,8.279773807525634,-40.21424923,Drive
74,0.054085502257713906,-0.08531482,-0.383646826,9.975854744031592,-0.315364731,-1.442061861,0.20553835596029574,0.008869032,0.00444039,-33.625,-50.59327717,45.644713134765624,-71.57020088,-0.581912194,0.050008758,0.021078867873606775,0.8106711965340835,0.10586127481208397,0.023267642,1.2439303868092024,9.975854744031592,-0.315364731,-1.442061861,0.18431141370764145,0.022307672198691692,0.004898525,1.1427229642868042,0.9683490991592407,1.5324102640151978,3.9000000953674316,7.441681385040283,102.09649658203125,160.39999389648438,-86.9112813,40.3845105,7.4871398448944095,12.104839754104614,-39.89058323,Drive
75,-0.047274386,-0.244731995,-0.340945018,9.890668544954467,-0.393993929,-2.162228883,0.29348690185732057,0.009724629,-0.003051271,-30.77777778,-51.48424316,50.49287090301514,-71.22847847,-0.463354726,0.083667713,0.035069642,0.8801632720289878,0.1812141037103042,0.014766885410741117,0.9677113670747257,9.890668544954467,-0.393993929,-2.162228883,0.2722599594627769,0.023163268795277633,-0.002593135,1.2134201526641846,1.0178899765014648,1.5423393249511719,3.9000000953674316,7.203588008880615,90.39845275878906,160.39999389648438,-86.9112053,40.384493,6.595197906494141,16.95372968673706,-39.54922726,Drive
76,0.026248923,-0.322568717,-0.042955415,9.934825397232204,-0.393810983,-2.160974385,0.31952204374433724,-0.009063372,-0.007511049,-31.625,-51.08237488,56.41816673278809,-69.16009071,-0.311693045,0.10081956050928356,0.029625196877903152,0.9432427368117767,0.21058852247242787,0.007025647,0.6375669654711936,9.934825397232204,-0.393810983,-2.160974385,0.29829510120512215,0.004375268,-0.007052914,1.2955125570297241,1.0872442722320557,1.5524237155914307,3.9000000953674316,7.077610015869141,78.82769012451172,160.39999389648438,-86.911125,40.3844913,6.997553863525391,22.87853765487671,-37.47974129,Drive
77,-0.011342928,-0.42565022,-0.111158142,9.933303777453968,-0.461884464,-2.351186372,0.36174760223592367,-0.005125483,0.00219134,-27.77777778,-51.20864498,63.30689682006836,-65.48130245,-0.147513652,0.10953237962664909,0.014656971995402309,0.9815727779008809,0.22155719185338438,0.00355496,0.297941874,9.933303777453968,-0.461884464,-2.351186372,0.3405206596967086,0.008313157,0.002649476,1.3770923614501953,1.0430723428726196,1.5623494386672974,3.9000000953674316,6.849834919,65.57340240478516,160.39999389648438,-86.9110505,40.384512,6.872137832641601,29.767267417907714,-33.80144138,Drive
78,-0.008194646,-0.458130522,-0.047833097,9.928183564772972,-0.420760032,-2.424961811,0.3614510737576531,-0.001140149,-0.007819438,-34.5,-51.32796127,68.45249053955078,-60.50150681,0.017737682280356732,0.1170310576274557,-3.89E-04,0.9918236425779399,0.23489846983580914,-0.00358232,-0.035366306,9.928183564772972,-0.420760032,-2.424961811,0.34022413121843803,0.012298490528302104,-0.007361303,1.4676365852355957,1.1428035497665405,1.5724222660064697,3.9000000953674316,6.287894248962402,50.15300750732422,160.39999389648438,-86.9109855,40.3845478,6.752211856842041,34.912861061096194,-28.82164547,Drive
79,-0.013846314,-0.385168685,0.050743745,9.899879668522807,-0.352131149,-2.130370088,0.3567540741082534,-0.01523115,-0.008365049,-33.44444444,-51.02369301,72.16763488769531,-55.22793499,0.1751741424781605,0.1068841574116818,-0.017259457,0.9775520441601577,0.2171441980646652,-0.003447549,-0.354224894,9.899879668522807,-0.352131149,-2.130370088,0.3355271315690383,-0.00179251,-0.007906914,1.550594449043274,1.0515227317810059,1.5824413299560547,3.9000000953674316,5.597685337,25.530109405517578,160.39999389648438,-86.9109436,40.3845927,7.055503883361816,38.62800521850586,-23.54831753,Drive
80,0.006125182,-0.361776558,0.041313932,9.998975661,-0.216190364,-1.94458946,0.3355819898322948,-0.003844483,0.009509647,-28.44444444,-51.00014702,73.03273658752441,-50.39319687,0.315535341,0.095132214,-0.024309133,0.9429517174230039,0.19617859324783954,-0.014083433,-0.644437315,9.998975661,-0.216190364,-1.94458946,0.3143550472930797,0.009594157,0.009967782,1.6402831077575684,1.1898319721221924,1.5922740697860718,3.9000000953674316,5.564621448516846,358.9109802246094,160.39999389648438,-86.9109284,40.3846482,7.079903893470764,39.49286338806152,-18.7132136,Drive
81,-0.084017754,-0.192335478,0.086395738,9.810889318151382,-0.014926103,-1.713618192,0.2880849649126713,-0.012404898,-0.016857035,-27.625,-50.59571712,72.42407936096191,-45.72181728,0.43825292443999875,0.084488753,-0.03157984,0.893617241,0.17988916128300703,-0.017350382,-0.910327481,9.810889318151382,-0.014926103,-1.713618192,0.2668580235196994,0.001033742,-0.0163989,1.7265055179595947,1.165032148361206,1.6023133993148804,3.9000000953674316,5.936993598937988,343.62774658203125,160.39999389648438,-86.9109405,40.3847046,7.4840898513793945,38.88420532226562,-14.04134575,Drive
82,-0.018546243,-0.079962801,0.5169487378550964,9.867329791911597,0.1581005300802079,-0.57982681,0.14614817189070786,-0.011162789,-0.005162549,-25.88888889,-50.17079105,71.08037078857421,-44.09348335,0.5173858152431192,0.05351886,-0.018237924,0.8536763468992363,0.11053559929132462,-0.023911965,-1.088394783,9.867329791911597,0.1581005300802079,-0.57982681,0.12492122956849996,0.002275851,-0.004704413,1.8098393678665161,1.1732434034347534,1.6123244762420654,3.9000000953674316,6.003981590270996,330.5777587890625,160.39999389648438,-86.9109727,40.3847562,7.909991898536682,37.54037509918213,-12.41398775,Drive
83,0.070027638,0.09665517,0.44304472019950164,9.908138441808015,0.063380761,0.11791040133051936,0.025923943,0.001576045,-0.016062911,-27.5,-50.55826309,71.05743453979493,-43.08710522,0.5301283111850035,0.013089116,-0.01023474,0.8476468295726961,0.033080323,0.003416585,-1.117909543,9.908138441808015,0.063380761,0.11791040133051936,0.004697,0.015014685171620143,-0.015604775,1.9072974920272827,1.225887417793274,1.6224029064178467,3.9000000953674316,5.997139930725098,319.3209533691406,160.39999389648438,-86.9110198,40.3848048,7.521909852027893,37.517439193725586,-11.40699986,Drive
84,0.00936985,0.021981437,0.23805427478933797,10.017090260403828,0.3559033292734507,0.6569314525254721,-0.045183423,-0.007616316,0.014965757884727158,-22.22222222,-50.29437691,70.20343490600585,-44.32638115,0.5036202269850425,-0.009719261,0.024840804693985332,0.8633620692688284,-0.041778078,-0.033303039,-1.056869594,10.017090260403828,0.3559033292734507,0.6569314525254721,-0.066410366,0.005822324,0.015423893365665402,1.8413711786270142,0.9464142918586731,1.6324108839035034,3.9000000953674316,6.650198459625244,312.7133483886719,160.39999389648438,-86.9110844,40.3848422,7.784575839042663,36.66356132507324,-12.64542177,Drive
85,-0.033930181,-0.019184337,0.12933974532247747,9.928278432442593,0.3518139533922434,0.7337912707231365,-0.057139423,0.003046823,-0.001770271,-21.625,-50.19470318,70.84893676757812,-44.32064705,0.45930553639976723,-0.018355739,0.030319988474394512,0.8874307245884127,-0.060531008,-0.037034686,-0.956324427,9.928278432442593,0.3518139533922434,0.7337912707231365,-0.078366366,0.016485463001073602,-0.001312135,1.669779658317566,0.9360021352767944,1.6423301696777344,3.9000000953674316,7.490274906158447,313.6263732910156,160.39999389648438,-86.9111493,40.3848954,7.885347871780396,37.30808731079102,-12.64066378,Drive
86,0.048695074,-0.075756408,0.1837470166891524,10.005843486600709,0.28419124805232854,0.8943232711657737,-0.07107623,8.169341695639621E-4,0.003697702,-31,-49.909711,71.92156074523926,-45.41291306,0.4073652720567092,-0.025032085,0.031086783006208613,0.9121947207497162,-0.071145316,-0.036478077,-0.84129645,10.005843486600709,0.28419124805232854,0.8943232711657737,-0.092303172,0.014255573879249249,0.004155837,1.6631652116775513,1.010445475578308,1.6524962186813354,3.9000000953674316,8.083976745605469,317.0433044433594,160.39999389648438,-86.9112164,40.3849554,8.170949826,38.380711250305175,-13.73292972,Drive
87,0.10365182450674112,-0.203609275,0.1354804218394085,10.101358848868065,0.2714808290887588,1.110278423405388,-0.08451487,-0.009822483,0.020765842,-23.66666667,-50.37928886,72.13652488708496,-46.19737309,0.3448971570695488,-0.037361405,0.038664375,0.9368706067788948,-0.096948448,-0.046835898,-0.707752779,10.101358848868065,0.2714808290887588,1.110278423405388,-0.105741812,0.003616157,0.021223977113761984,1.6308649778366089,1.032327414,1.6623036861419678,3.9000000953674316,8.621026992797852,321.4089050292969,160.39999389648438,-86.9112815,40.3850193,7.700395842,38.59628520965576,-14.51738974,Drive
88,-0.033906807,-0.094910812,0.085408707,9.923459451,0.2896709286888103,1.1846620984447813,-0.089437231,0.007648935,-0.002268438,-20.75,-50.39636913,72.06478874206543,-47.48752289,0.2773915069195831,-0.04733047,0.033718894,0.95877795,-0.109854755,-0.038455753,-0.565367769,9.923459451,0.2896709286888103,1.1846620984447813,-0.110664174,0.021087574325524525,-0.001810302,1.454632043838501,0.9521029591560364,1.6723525524139404,3.9000000953674316,9.260763168334961,327.3206481933594,160.39999389648438,-86.9113421,40.3850991,7.683071813583374,38.524793434143064,-15.80741776,Drive
89,-0.058149264,-0.071967831,-0.015156023,9.861484222041751,0.25941798346822414,1.091800832632676,-0.085036987,0.001785554,-0.007071732,-22.77777778,-50.185187,72.99747863769531,-48.25575699,0.21139613023171058,-0.050752116,0.028038559606871925,0.9754947240536029,-0.111265079,-0.033261237,-0.428669621,9.861484222041751,0.25941798346822414,1.091800832632676,-0.106263929,0.015224193326922921,-0.006613596,1.3649981021881104,0.9602082967758179,1.6824184656143188,3.9000000953674316,9.708412170410156,333.5979004,160.39999389648438,-86.9113917,40.3851879,7.894131875038147,39.457239303588864,-16.57552963,Drive
90,0.089783159,0.037763281,-0.329448201,10.06410460796171,0.45999401867462014,0.3329130671466294,-0.024687421,0.007909879,0.011146479921451615,-24.375,-50.33744316,73.13399696350098,-49.26811302,0.17480239373387643,-0.02894673,0.026613582902162976,0.9837626010468863,-0.066356283,-0.042189565,-0.353065765,10.06410460796171,0.45999401867462014,0.3329130671466294,-0.045914364,0.021348518984577645,0.011604615294451382,1.2941679954528809,0.9521029591560364,1.6923590898513794,3.9000000953674316,10.117290496826172,340.1252441,160.39999389648438,-86.9114319,40.3852815,7.742607808113098,39.59339115142822,-17.58776369,Drive
91,-0.051020233,-0.012777736,-0.111432797,9.881175652291011,0.3876517875734897,0.15895137514210378,-0.002744365,-0.004188455,-0.00506766,-24.77777778,-50.28156704,73.14168266296387,-49.08535709,0.1614969353942038,-0.010157481,0.022075793389411805,0.9865616050738732,-0.027205507,-0.040272449,-0.325067195,9.881175652291011,0.3876517875734897,0.15895137514210378,-0.023971307,0.009250185,-0.004609525,1.2040992975234985,0.9200543165206909,1.7024461030960083,3.9000000953674316,10.65078353881836,343.0563965,160.39999389648438,-86.9114658,40.3853801,7.797751808166504,39.60071136,-17.40488565,Drive
92,0.006034481,-0.002707463,-0.017758094,9.964415210943956,0.38308170172632133,0.19222821370931342,-0.003906754,-0.007307927,-0.001082326,-19.5,-50.35122913,73.24513862609864,-48.97006691,0.14541625875292472,-0.007587644,0.020596595,0.9891121838856669,-0.021017499,-0.038554489,-0.292347704,9.964415210943956,0.38308170172632133,0.19222821370931342,-0.025133696,0.006130712,-6.24E-04,0.9727959632873535,0.9121403694152832,1.7123292684555054,3.9000000953674316,11.22929573059082,343.5032043457031,160.39999389648438,-86.9115024,40.3854842,7.727967872619629,39.70526538848877,-17.28947374,Drive
93,-0.028199288,0.004434577,-0.015422745,9.902769135039987,0.36061056945653797,0.20169694506047856,-0.003800004,0.003711045,-0.001770271,-25.44444444,-50.13638702,73.14595230102539,-49.00788681,0.12763533979943656,-0.008533322,0.019238326047520037,0.9915867152723293,-0.021852459,-0.035973437,-0.256422573,9.902769135039987,0.36061056945653797,0.20169694506047856,-0.025026946,0.017149685114029867,-0.001312135,0.833442211,0.9121403694152832,1.7224605083465576,3.9000000953674316,11.770182609558105,344.48065185546875,160.39999389648438,-86.911543,40.3855928,7.943907852172852,39.606567268371585,-17.32741575,Drive
94,-0.047119585,0.005445871,-0.024291762,9.841882808,0.31988612165475644,0.15134022384881973,-0.001060087,-4.89E-05,-0.006277493,-22.55555556,-50.06501732,73.07751014709473,-48.57856907,0.11207970817690914,-0.007084808,0.016843729200366052,0.9935210636518534,-0.017872003,-0.031881477,-0.224957576,9.841882808,0.31988612165475644,0.15134022384881973,-0.022287029,0.013389712765821916,-0.005819358,0.8480180501937866,0.9667471051216125,1.7323808670043945,3.9000000953674316,12.269659042358398,344.6058654785156,160.39999389648438,-86.9115814,40.3857037,8.015155826,39.537271156311036,-16.89797569,Drive
95,0.002184747,-0.02636576,-0.028321731,9.890459449545851,0.217168983,0.066940956,0.001086774,-0.001768788,-0.005743743,-24.375,-49.91666512,74.09730880737305,-48.85038517,0.098446638,-0.003667692,0.012917177371897744,0.9950416036022519,-0.009859438,-0.02498562,-0.197356442,9.890459449545851,0.217168983,0.066940956,-0.020140168,0.011669851455823926,-0.005285608,0.8588817119598389,1.0604244470596313,1.7423537969589233,3.9000000953674316,12.716144561767578,345.4780273,160.39999389648438,-86.9116205,40.3858191,8.163263855,40.55816738128662,-17.16979166,Drive
96,-0.028671686,-0.009340279,-0.00671322,9.846081854070274,0.15192971854511358,0.10409649723272735,0.001891277,0.002784054,-0.00643739,-22.55555556,-50.04842525,74.29336242675781,-48.75229706,0.08437848,-0.00481504,0.008491152,0.9963779804798273,-0.011038635,-0.016104491,-0.169057707,9.846081854070274,0.15192971854511358,0.10409649723272735,-0.019335665,0.016222693698252372,-0.005979255,0.8717913031578064,1.084066390991211,1.7524627447128296,3.9000000953674316,13.255290031433105,345.5739440917969,160.39999389648438,-86.9116606,40.3859408,8.032235841751099,40.75409927368164,-17.0721917,Drive
97,0.064158236,-0.037224699,-0.023335407,10.001054874901632,0.081704439,0.059756681,4.6999651364511947E-4,-0.008339844,0.003353729,-21.875,-50.13175106,73.81097480773926,-48.62187912,0.072019825,-0.003737479,0.006265995,0.9973694635826407,-0.008359816,-0.011964195,-0.144219072,10.001054874901632,0.081704439,0.059756681,-0.020756946,0.005098796,0.003811865,0.8809598684310913,1.0920164585113525,1.7623099088668823,3.9000000953674316,13.75335407,345.63079833984375,160.39999389648438,-86.9117036,40.386065,7.9481778240203855,40.27085731506347,-16.9414077,Drive
98,-0.032051485,-0.088027375,0.008241521,9.891121512477838,-0.135435504,0.160705337,0.00114608,-0.010735789,-0.003229188,-20.88888889,-50.29669502,74.54992874145508,-48.88735085,0.059807094880967464,-0.007805407,-0.001941322,0.9981628691108482,-0.015377113,0.004800713,-0.119646552,9.891121512477838,-0.135435504,0.160705337,-0.020080862,0.002702851,-0.002771052,0.8266111016273499,0.9808160066604614,1.7724047899246216,3.9000000953674316,14.134586334228516,345.76519775390625,160.39999389648438,-86.9117467,40.3861922,7.783721857070923,41.01005512237549,-17.20651367,Drive
99,0.08978027,-0.01366575,0.012265439606407314,9.981273410389724,-0.129772877,0.2612851980793317,-3.01E-04,-0.002243233,0.002167618,-23.375,-49.86566895,74.11353462219239,-49.37303307,0.047183239,-0.012844515,-0.005269237,0.9987828795192311,-0.025166977,0.011734905978212657,-0.094263404,9.981273410389724,-0.129772877,0.2612851980793317,-0.021527918,0.011195407087973418,0.002625754,0.8383585214614868,1.104354977607727,1.7823377847671509,3.9000000953674316,14.578068733215332,345.6889648,160.39999389648438,-86.9117914,40.3863227,8.214625873565673,40.57317333221435,-17.69280571,Drive
100,-0.005769396,-0.003538273,0.003811198,9.919633205,-0.139793186,0.25546545212945115,-0.002673198,0.001481156,-1.45E-04,-20.88888889,-49.77917091,74.50161643981933,-49.15514091,0.034751669,-0.012850173,-0.006463515,0.9992856053472723,-0.025240936,0.013811449411786298,-0.069350647,9.919633205,-0.139793186,0.25546545212945115,-0.02390014,0.014919796156091163,3.128368204043617E-4,0.7940565347671509,1.0217632055282593,1.7924145460128784,3.9000000953674316,14.70525074005127,345.8876037597656,160.39999389648438,-86.9118392,40.386452,8.29917182,40.96101108551025,-17.47515772,Drive
101,-0.020105621,-0.018754224,-0.021668656,9.933219520791063,-0.152786373,0.21652141007260212,-8.47E-04,0.002335156,1.0378475106565408E-4,-21.66666667,-49.98217911,74.37546844482422,-49.55456905,0.023268938462421732,-0.012254084,-0.006402948,0.9996286775301961,-0.024206357,0.013377978819087871,-0.046385307,9.933219520791063,-0.152786373,0.21652141007260212,-0.022073529,0.015773796229465023,5.619201783172207E-4,0.8063592910766602,1.078007459640503,1.802427053451538,3.9000000953674316,14.922411918640137,345.84039306640625,160.39999389648438,-86.9118804,40.386573,8.098115859031678,40.83620517730713,-17.87556164,Drive
102,0.024881149958638313,-0.014670031,8.945109919436927E-4,9.951026249857781,-0.178956416,0.20522229260628255,-0.001973393,-0.004710344,-6.43E-04,-18.5,-49.6953569,74.06095268249511,-49.02606522,0.013349924,-0.010353282,-0.00833441,0.9998174917350695,-0.02048515,0.016940265,-0.026529379,9.951026249857781,-0.178956416,0.20522229260628255,-0.023200335,0.008728296,-1.85E-04,0.7034204006195068,0.9420191049575806,1.8122313022613525,3.9000000953674316,15.348368644714355,344.9273681640625,160.39999389648438,-86.9119326,40.3867056,8.384571809768676,40.521445236206056,-17.34644762,Drive
103,0.012491051967327412,-0.012632546,-0.062341316,9.959247329860057,-0.21438994,0.16962324831526257,0.002995501,-0.002866283,9.750062364708775E-4,-20.44444444,-49.91459095,74.76928482055663,-49.00910732,0.004060948,-0.01169213,-0.009863248,0.9998724082341561,-0.023309439,0.019823190183020555,-0.007892626,9.959247329860057,-0.21438994,0.16962324831526257,-0.018231441,0.010572356494286885,0.001433142,0.7285273671150208,1.0244998931884766,1.8223698139190674,3.9000000953674316,15.401490211486816,345.7990723,160.39999389648438,-86.9119812,40.3868348,8.165581846237183,41.229045181274415,-17.32973368,Drive
104,0.086859333,-0.037040567,-0.04902012,10.055291222137155,-0.236752957,0.12462424332257903,0.007242691,-0.006916511,0.007291619,-18.25,-49.77551109,74.32117874145507,-49.25579079,-6.61E-04,-0.008700332,-0.010021419,0.9999107301813884,-0.01741677,0.020030530766376013,0.001497275,10.055291222137155,-0.236752957,0.12462424332257903,-0.013984251,0.006522129,0.007749754,0.7417248487472534,1.0012491941452026,1.8322933912277222,3.9000000953674316,15.572097778320312,345.0463562011719,160.39999389648438,-86.9120297,40.3869741,8.305149846076965,40.78142707824707,-17.57617374,Drive
105,-0.055642008,-0.069058089,0.00801078,9.980358734871578,-0.255593531,0.1248188055187093,0.00434858,0.012998296075062013,0.005417563,-24.66666667,-50.05659901,73.87307228088379,-49.1955228,-0.006380636,-0.005756014,-0.009325751,0.9999159354608036,-0.011634903,0.018583516364248053,0.012868585042402294,9.980358734871578,-0.255593531,0.1248188055187093,-0.016878362,0.026436935952588808,0.005875698,0.6542404294013977,0.9261749386787415,1.8424240350723267,3.9000000953674316,15.628769874572754,344.9829406738281,160.39999389648438,-86.9120811,40.3871135,8.022353858947755,40.33319923400879,-17.51553965,Drive
106,0.029707723,-0.154737005,0.061716516,10.04394850684601,-0.517680211,0.2850275750481637,-0.006599226,-0.008660094,0.005453146,-22.75,-50.19092113,73.68165451049805,-49.50869698,-0.016738354,-0.010815594,-0.018297361,0.9996178861960624,-0.022273212,0.036202883,0.033907988081568655,10.04394850684601,-0.517680211,0.2850275750481637,-0.027826168,0.004778546,0.005911282,0.6939944624900818,1.0700467824935913,1.852374792098999,3.9000000953674316,15.77167034,344.9165954589844,160.39999389648438,-86.9121302,40.3872533,7.890349869728088,40.14129322052002,-17.82920166,Drive
107,-0.050373948,-0.076157749,-0.056041677,9.936181655296913,-0.599186376,0.1805775817617989,-0.001831059,-0.001033399,3.528681084133902E-4,-24.66666667,-50.2883989,73.59771842956543,-49.90409916,-0.02626868,-0.011069649,-0.026342567,0.9992408162181817,-0.023549219,0.052093347950467786,0.053172955199063406,9.936181655296913,-0.599186376,0.1805775817617989,-0.023058001,0.012405241,8.110035486627841E-4,0.6915156841278076,1.0217632055282593,1.8623188734054565,3.9000000953674316,15.614188194274902,345.0690002441406,160.39999389648438,-86.912179,40.387388,7.792261848449707,40.05784538269043,-18.22387169,Drive
108,-0.015133737,-0.015965321,-0.013563141,9.911068527443895,-0.608903671,0.21417214592141146,0.001430747,-0.002670233,-4.89E-04,-23.33333333,-50.15127117,73.46400680541993,-49.564939,-0.033132266,-0.010369004,-0.030307715,0.9989355449537629,-0.022767921,0.059899865,0.06699298,9.911068527443895,-0.608903671,0.21417214592141146,-0.019796196,0.010768407007489461,-3.11E-05,0.719733715,1.0666770935058594,1.8724194765090942,3.9000000953674316,15.502606391906738,345.0747985839844,160.39999389648438,-86.9122235,40.3875236,7.928413829803467,39.924011116027835,-17.88483364,Drive
109,-0.038040198,0.003931539,0.001151572,9.895108602579358,-0.592772445,0.1916610291589377,-0.001380337,0.002465629,-3.23E-04,-25.75,-49.81943123,73.30491859436034,-49.17161125,-0.040665911,-0.008400045,-0.030368376,0.9986730923930418,-0.019284384,0.060011805,0.081973605,9.895108602579358,-0.592772445,0.1916610291589377,-0.022607279,0.015904268,1.3492018090633368E-4,0.6767877340316772,0.9940322041511536,1.8824042081832886,3.9000000953674316,15.225278854370117,345.15069580078125,160.39999389648438,-86.9122713,40.3876548,8.259765872955322,39.763947067260744,-17.49138367,Drive
110,0.001323122,0.034429765,-0.022822514,9.849999270392853,-0.582327076,0.18792659832725248,4.6988232217979835E-5,-0.005744314,-0.006366908,-24.88888889,-49.91398113,73.98165229797364,-49.76660507,-0.048219311,-0.009250511,-0.03173529,0.9982872874690936,-0.021575438,0.062509292,0.097204161,9.849999270392853,-0.582327076,0.18792659832725248,-0.021179954,0.007694326,-0.005908772,0.7167640924453735,1.0604244470596313,2.530585765838623,3.9000000953674316,14.820185661315918,345.2648926,156.26922607421875,-86.9123168,40.3877812,8.165581793785096,40.44190113067627,-18.08637777,Drive
111,0.002780609,0.035705511,-9.79E-04,9.860084533691406,-0.57200948,0.14771033653501167,0.002913386,-0.001033399,-0.005103243,-29.625,-50.17127899,73.60918647766113,-49.48319897,-0.053549575,-0.005868815,-0.031141121,0.9980597918473401,-0.015077782,0.061571077,0.10766815994549724,9.860084533691406,-0.57200948,0.14771033653501167,-0.018313557,0.012405240463513375,-0.004645108,0.722250223,1.0065783262252808,2.9526453018188477,3.9000000953674316,14.273503303527832,345.3460388183594,155.95745849609375,-86.9123586,40.3879013,7.9081618595123295,40.06906898498535,-17.80321554,Drive
112,0.002993824,0.038421853,0.081948609,9.870904497,-0.545752318,0.39232127874800304,-0.013929393,-0.006608122,-0.004522049,-29.11111111,-49.47343884,74.22211463928222,-48.9687249,-0.062514254,-0.013825455,-0.030484209,0.9974726982487058,-0.031451252,0.059100855,0.1261099451085896,9.870904497,-0.545752318,0.39232127874800304,-0.035156335,0.006830518,-0.004063913,0.7589237093925476,1.0761505365371704,3.3691391944885254,3.9000000953674316,14.006790161132812,345.23333740234375,156.28594970703125,-86.9124025,40.388023,8.606367835998535,40.68187507629395,-17.28886366,Drive
113,0.024277548,-0.022686128,-0.077162415,9.896148209432953,-0.582661025,0.3217330090159062,-0.006872032,-0.001306205,-0.003098715,-22.625,-48.73814529,73.88746871948243,-48.94566692,-0.071032816,-0.018104802,-0.029667494,0.99686405,-0.040388299,0.05661308,0.14341170854360155,9.896148209432953,-0.582661025,0.3217330090159062,-0.028098974,0.012132435,-0.00264058,0.8047322034835815,1.1264545917510986,3.019595146179199,3.9000000953674316,13.831743240356445,345.1602783203125,156.3958740234375,-86.9124449,40.3881423,9.341661863327026,40.34698513031006,-17.26604959,Drive
114,0.019770964835453958,-0.256442887,-0.065481461,9.962951366717999,-1.081886573,0.18548689438746527,0.004739997,-0.004390094,0.003697702,-28.66666667,-48.19536709,73.56648620605469,-48.84404087,-0.073721324,-0.009434625,-0.042057528,0.9963272549573657,-0.02509838,0.082513026,0.14874292360347452,9.962951366717999,-1.081886573,0.18548689438746527,-0.016486946,0.009048546,0.004155837,0.8488734364509583,1.2342203855514526,3.0124928951263428,3.9000000953674316,13.509772300720215,346.0804443359375,155.88714599609375,-86.9124832,40.3882535,9.883951826095581,40.02588127,-17.16430166,Drive
115,0.007483538,-0.296935566,0.011232153015229309,9.973763966,-1.624058677,0.2065522829974884,0.004431608,0.003711045,0.003828174,-25,-48.25819687,73.00797065734864,-48.97421509,-0.075986907,-0.004819262,-0.066377542,0.9948595553925894,-0.019859818,0.13172793598140328,0.15376533032620995,9.973763966,-1.624058677,0.2065522829974884,-0.016795334,0.017149685127027695,0.004286309,0.9199426174163818,1.1928118467330933,2.809084415435791,3.9000000953674316,13.144262313842773,346.2596435546875,156.0103759765625,-86.9125177,40.388363,9.822219848632812,39.46785327911377,-17.2942318,Drive
116,-0.049185642,-0.129458747,0.013181075670765442,9.904110696,-1.748311216,0.22960643213495469,-0.004286309,0.003260323,0.005049868,-26.875,-48.28552521,73.00919052124023,-49.51369911,-0.080940806,-0.00408388,-0.081209372,0.9933918083755715,-0.021551192,0.16138420449298563,0.16434476748832222,9.904110696,-1.748311216,0.22960643213495469,-0.025513252,0.016698963,0.005508004,0.957557201,1.1428472995758057,2.744588613510132,3.9000000953674316,12.638471603393555,346.3879395,155.33160400390625,-86.9125534,40.3884691,9.794403877,39.46809700012207,-17.83359369,Drive
117,0.018992433270204414,-0.096393747,-0.025242031,9.930733773314838,-1.90508466,0.13943999688094708,-0.00259017,0.00205049,-0.003300354,-26.55555556,-48.07800308,73.84867271,-49.22370506,-0.086694225,-3.71E-04,-0.090366049,0.9921227190101031,-0.016681551,0.18022310675926578,0.1758259244046165,9.930733773314838,-1.90508466,0.13943999688094708,-0.023817113,0.015489129437183401,-0.002842219,1.0101232528686523,1.1601723432540894,2.5,3.9000000953674316,11.693933486938477,346.7953796386719,155.6661376953125,-86.9125871,40.3885596,10.00131586074829,40.30855525970459,-17.54408762,Drive
118,-6.59E-04,-0.068407649,-0.019422104,9.948325657,-1.981524315,0.076346723,0.002067483,0.00563859,0.010537115271570375,-31.625,-48.78279705,74.30629493713379,-48.00150921,-0.090602353,0.003858328,-0.094916252,0.991344541,-0.009724585,0.19003290912279716,0.18320748023688793,9.948325657,-1.981524315,0.076346723,-0.019159459,0.019077230003089286,0.010995250657008281,1.0507687330245972,1.1183022260665894,2.5,3.9000000953674316,10.41793441772461,347.19525146484375,155.53631591796875,-86.912612,40.3886392,9.297253838,40.765933189392086,-16.32311171,Drive
119,-0.028134068,0.14125130014512147,-0.004977451,9.892953872680664,-1.644063716,0.050115696,9.088576415291472E-4,-0.002848149,0.001076396,-31.22222222,-48.80353691,72.36576240539551,-47.94380314,-0.094084676,0.005657518,-0.088754838,0.9915754523092103,-0.005559441,0.17801979950909474,0.18969482834478027,9.892953872680664,-1.644063716,0.050115696,-0.020318085,0.01059049,0.001534531,1.081879973,1.0511897802352905,2.5,3.9000000953674316,8.648246765136719,347.82989501953125,154.98626708984375,-86.9126328,40.3886962,9.276513833999633,38.82540100097656,-16.26418577,Drive
120,0.010286747830585368,0.19148966525364847,-0.010689324,9.911762497,-1.299854434,0.085296577,-5.38E-04,-0.005137344,-2.16E-04,-32.875,-48.33761909,72.39016288757324,-48.9599411,-0.098831582,0.002608015,-0.074778641,0.9922736073003232,-0.009698181,0.14947510271975137,0.19926553299126115,9.911762497,-1.299854434,0.085296577,-0.02176514,0.008301296,2.4167014437374994E-4,1.1317319869995117,1.0499523878097534,2.5,3.9000000953674316,7.005316257476807,348.2895202636719,155.020752,-86.9126478,40.3887433,9.742431812286377,38.85053329467773,-17.27922569,Drive
121,-0.002004346,0.11511109697008595,-0.018692261,9.908408229167645,-1.084797075,0.1198136917818584,-6.45E-04,-0.010806955,-2.64E-04,-32.44444444,-48.32871288,73.60028091430664,-49.50442703,-0.103750836,-5.20E-04,-0.060546934,0.9927532609226635,-0.013687784,0.12039946236656708,0.20908296759267456,9.908408229167645,-1.084797075,0.1198136917818584,-0.02187189,0.002631684,1.942257202474527E-4,1.1967072486877441,1.110180139541626,2.5,3.9000000953674316,5.768499851226807,348.42498779296875,155.9448242,-86.9126598,40.3887812,9.751215867996216,40.060773124694826,-17.82383366,Drive
122,-0.001610293,-0.005394174,-0.007514097,9.910728751,-1.12737084,0.20205122170697454,-9.30E-04,-0.003559816,-8.10E-04,-30.25,-48.51549534,73.31126235961914,-49.89153324,-0.108336871,-0.004403753,-0.057231335,0.9924544923513838,-0.02128013,0.11288490609347242,0.21866232359293594,9.910728751,-1.12737084,0.20205122170697454,-0.022156557,0.009878824,-3.51E-04,1.2090142965316772,0.9042676687240601,2.5,3.9000000953674316,4.050479888916016,349.0961608886719,156.05535888671875,-86.9126714,40.3888045,9.564311857,39.77114521026611,-18.21069565,Drive
123,-0.01209722,-0.015582322,-0.005931973,9.870593774665906,-1.156897803,0.24930366099748796,4.4627434933485773E-4,-0.008470316,0.002392979,-35.77777778,-48.18572918,74.33264633,-49.30873875,-0.112500323,-0.006337481,-0.058443139,0.991909651,-0.025897158,0.11476424669177787,0.22735973078649022,9.870593774665906,-1.156897803,0.24930366099748796,-0.020780668,0.004968323,0.002851115,1.2813756465911865,0.9840731620788574,2.5,3.9000000953674316,3.0321927070617676,349.31842041015625,156.37091064453125,-86.9126802,40.3888201,9.894077806472778,40.79277313232422,-17.62985369,Drive
124,0.019064255131101146,0.2975437641143799,-0.010153724,9.913487462,-0.522009942,0.27377491943465854,4.299655805332858E-5,-0.003370038,0.002713229,-34.11111111,-48.1320491,74.47392250061036,-49.05949287,-0.117013918,-0.00933535,-0.042900982,0.992119222,-0.028645288,0.083042722,0.23598802653909887,9.913487462,-0.522009942,0.27377491943465854,-0.021183945,0.010068601390654311,0.003171365,1.3582545518875122,0.9042676687240601,2.5,3.9000000953674316,1.9107612371444702,350.7239074707031,155.51177978515625,-86.9126853,40.388831,9.948123865127563,40.93478137969971,-17.37841164,Drive
125,0.007504601,0.088503438,-0.012444684,9.936927832446052,-0.412872255,0.27853733330097014,6.225943473579648E-4,-0.002290677,5.521119153574825E-4,-33.75,-48.14229713,74.61007476806641,-49.17331898,-0.121298954,-0.011421962,-0.026918362,0.9921818134876398,-0.029232571,0.050666794,0.2440425786547936,9.936927832446052,-0.412872255,0.27853733330097014,-0.020604348,0.011147962529391337,0.001010247,1.4371545314788818,0.9042676687240601,1.0285253524780273,3.9000000953674316,1.028572678565979,352.69793701171875,159.79998779296875,-86.9126884,40.3888318,9.936899852752685,41.06983524,-17.49406765,Drive
126,0.003802161,0.11925471740440258,-0.011547299,9.941507293182669,-0.208126204,0.278885803,5.174410197142403E-4,-0.001816233,9.696458543207749E-4,-32.66666667,-48.20610313,74.54578033447265,-49.16648689,-0.125025694,-0.012429404,-0.018157128,0.9919020336808511,-0.029210326,0.032918731,0.25125145261148807,9.941507293182669,-0.208126204,0.278885803,-0.020709501,0.011622407044130333,0.001427781,1.5295400619506836,1.2453112602233887,1.0385472774505615,3.9000000953674316,0.6773107051849365,353.9769287109375,159.79998779296875,-86.9126897,40.3888325,9.873459882736206,41.005663299560545,-17.48577171,Drive
127,-0.004204426,0.031646838,-0.009881567,9.933521511485276,-0.148758648,0.27846763854466594,4.8185768254661876E-4,-0.001828094,3.647291671159198E-4,-32.5,-48.17584709,74.53211631774903,-49.16270485,-0.128507555,-0.013212174,-0.010863065,0.9915602577542796,-0.029000743,0.018148055,0.2580291000963415,9.933521511485276,-0.148758648,0.27846763854466594,-0.020745084,0.011610545846407564,8.22864611886297E-4,45,0.12727922201156616,1.0486057996749878,3.924999952316284,0.656406045,353.7513732910156,159.79998779296875,-86.9126919,40.3888308,9.904081840515136,40.99248722076416,-17.48235577,Drive
128,-0.015018593,0.001980251,-0.010621029,9.895523823,-0.152361256,0.27991423340371024,4.2255212229595166E-4,-0.002136483,3.528680598128189E-4,-32.22222222,-48.31712318,74.61519882202148,-49.21955708,-0.131496011,-0.01348985,-0.00969725,0.9911771173616057,-0.029299639,0.015676239026185958,0.2640222655337991,9.895523823,-0.152361256,0.27991423340371024,-0.02080439,0.011302157015838091,8.110035017575816E-4,45,0.1063014566898346,1.0585918426513672,3.937999963760376,0.6092929244041443,353.1162414550781,159.79998779296875,-86.9126934,40.3888278,9.763171825408936,41.075569229125975,-17.53957363,Drive
129,-0.007023311,-2.76E-04,-0.011465932,9.880612253,-0.155063038,0.2787696460207689,4.3441323581540467E-4,-0.002077177,4.5961805944810216E-4,-32.125,-48.10093914,74.45171875,-49.09597115,-0.134240128,-0.013527092,-0.009621634,0.9908094799634323,-0.02939649,0.015435279211373006,0.2695575281254296,9.880612253,-0.155063038,0.2787696460207689,-0.020792529,0.011361462565916546,9.177535030882335E-4,45,0.086023256,1.0685752630233765,3.934999942779541,0.5472332835197449,352.29388427734375,159.79998779296875,-86.9126944,40.3888254,9.978623838424683,40.91160110473633,-17.41537762,Drive
130,0.008710213,-0.002540096,-0.010727684,9.900907729435893,-0.152252052,0.2806281485025165,4.344132380758964E-4,-0.001982288,2.3425692800902625E-4,-32.11111111,-48.25661118,74.5351667,-49.17502693,-0.136854962,-0.013507116,-0.009601181,0.9904521848391561,-0.029391924,0.015322582,0.2748348290480456,9.900907729435893,-0.152252052,0.2806281485025165,-0.020792529,0.011456351415299385,6.92392376170141E-4,45,0.086023256,1.078535556793213,3.944000005722046,0.46742960810661316,351.1648254394531,159.79998779296875,-86.912695,40.3888224,9.824171857833862,40.99529319763184,-17.49540972,Drive
131,0.021377915317572438,0.002344922,-0.008603476,9.940868452,-0.146708487,0.2790948841178301,1.4826390514765115E-4,-6.08E-04,9.044099969843637E-5,-32.75,-48.16145111,74.59811851501465,-49.15745895,-0.139318707,-0.013300161,-0.009463315,0.990112796,-0.02898143,0.015034391599011074,0.27980221041197917,9.940868452,-0.146708487,0.2790948841178301,-0.020780667,0.011539379207109943,8.465868383600801E-4,45,0.086023256,1.0885791778564453,3.9700000286102295,0.3931928277015686,349.8713684082031,159.79998779296875,-86.9126955,40.3888204,9.918599815368653,41.057879524230955,-17.47735369,Drive
132,0.00616401,0.001456153,-0.001541627,9.950631373136947,-0.145877968,0.279234271,-4.70E-05,-2.35E-05,2.3494166760848693E-5,-32.11111111,-48.14351715,74.54736663818359,-49.14843086,-0.141625559,-0.012922386,-0.009288552,0.9897921274487789,-0.028218739,0.014727767512130622,0.2844507952149098,9.950631373136947,-0.145877968,0.279234271,-0.020815795,0.011429892069337746,9.397649908071168E-4,45,0.086023256,1.0985628366470337,3.9709999561309814,0.3304150402545929,349.4494934082031,159.79998779296875,-86.9126954,40.3888192,9.936411752700806,41.00785919189453,-17.46795971,Drive
133,2.91389169044865E-4,-2.44E-04,2.331014686417811E-4,9.948685729387895,-0.146772373,0.2790716526288431,-8.30E-05,8.599315340476997E-5,-2.00E-04,-32.33333333,-48.27820518,74.60482849121094,-49.24493294,-0.143925186,-0.012799708,-0.009303774,0.9894618293614064,-0.028014487,0.014727601817655332,0.289096326,9.948685729387895,-0.146772373,0.2790716526288431,-0.020851834,0.011539379211630925,7.161146054695388E-4,45,0.086023256,1.108654260635376,3.990000009536743,0.2711135447025299,348.84967041015625,159.79998779296875,-86.9126954,40.3888181,9.801357831954956,41.06434490203858,-17.56458368,Drive
134,-0.002136156,-3.60E-04,-5.87E-04,9.944274744941193,-0.147614507,0.27730607364362886,2.3722223648168508E-5,1.4529869896224112E-4,-5.78E-05,-32.125,-48.12948708,74.47526466,-49.10048489,-0.146105031,-0.012729445,-0.009362708,0.9891426742655559,-0.027925036,0.014803012046348122,0.2935034375167587,9.944274744941193,-0.147614507,0.27730607364362886,-0.020745084,0.011598685,8.584479422724435E-4,45,0.086023256,1.118567705154419,4.013999938964844,0.21660901606082916,348.2012634277344,159.79998779296875,-86.9126952,40.3888169,9.950197811126708,40.93502525,-17.41952559,Drive
135,-7.22E-04,0.001325517,1.7804558416014736E-4,9.943287395736546,-0.145967989,0.2777010060629798,1.304722300649268E-4,8.599315453501581E-5,-1.41E-04,-33.88888889,-48.24855904,74.65240852355957,-49.16319313,-0.148179304,-0.012694151,-0.009390675,0.9888342642089696,-0.027894545,0.014810155308579357,0.2976979911327362,9.943287395736546,-0.145967989,0.2777010060629798,-0.020638334,0.011539379202588958,7.754201634597142E-4,45,0.086023256,1.1286816596984863,4.0929999351501465,0.16453567147254944,347.77923583984375,159.79998779296875,-86.912695,40.3888156,9.831003828048706,41.112169151306155,-17.48235573,Drive
136,-0.006723163,5.911994472290706E-4,3.0142734351667387E-5,9.941879024872414,-0.146781838,0.276140937,2.3722223648168508E-5,1.3343759278938608E-4,-1.65E-04,-32.875,-48.1695031,74.40596878051758,-49.37730316,-0.15021204,-0.012601935,-0.009422594,0.9885283841670138,-0.027752126,0.014843607131500267,0.30180915582527235,9.941879024872414,-0.146781838,0.276140937,-0.020745084,0.011586823649885296,7.516979364208081E-4,45,0.086023256,1.1386240720748901,4.144999980926514,0.13217486441135406,351.0910339355469,159.79998779296875,-86.9126942,40.3888152,9.909815845489502,40.86621723175049,-17.69585567,Drive
137,-0.002609058,4.915640626138854E-4,0.002580279,9.923322964640496,-0.147835204,0.2794665844695082,-4.74E-05,8.599313984181985E-5,-1.76E-04,-31.66666667,-48.12228905,73.90406021118164,-49.44098694,-0.152330864,-0.012644124,-0.009476924,0.9882030388683949,-0.027883934,0.014878614742345022,0.3060984695420682,9.923322964640496,-0.147835204,0.2794665844695082,-0.020816251,0.011539379207109943,7.398368234664781E-4,45,0.086023256,1.1485624313354492,4.188000202178955,0.10644228011369705,355.1383361816406,159.79998779296875,-86.9126935,40.3888149,9.957029790878297,40.36467544555664,-17.76088169,Drive
138,-0.016739327,2.9855279378520635E-4,-6.00E-05,9.892872634443265,-0.151264723,0.2778868569621762,4.7444447296337016E-5,-5.63E-05,-2.95E-04,-32.375,-48.21391113,74.09096458435059,-49.48515099,-0.154347824,-0.012658637,-0.009733566,0.987887352,-0.028022363,0.015324240342433591,0.31018929255818856,9.892872634443265,-0.151264723,0.2778868569621762,-0.020721362,0.011397045824532081,6.212257069210043E-4,0,0.086023256,1.1585466861724854,4.214000225067139,0.089386806,0,159.79998779296875,-86.9126932,40.3888148,9.865651798,40.55170127868652,-17.80443562,Drive
139,-0.006553476,6.439658598257945E-4,-5.41E-04,9.888412216334666,-0.153474599,0.2775616181417576,9.397650137543678E-5,2.3494210416594378E-5,-1.53E-04,-31.77777778,-48.05689709,73.95432472229004,-49.41365898,-0.156284664,-0.012651801,-0.009881917,0.9875814215495036,-0.02808527,0.015564458211883903,0.31411535350176006,9.888412216334666,-0.153474599,0.2775616181417576,-0.02067483,0.011476880261817804,7.635590468103496E-4,0,0.086023256,1.1685338020324707,4.2129998207092285,0.081325911,0,159.79998779296875,-86.9126931,40.3888147,10.023153858184815,40.414695281982425,-17.73233362,Drive
140,0.011591402072350956,6.872318612719046E-4,0.001985102,9.905199689772523,-0.154218001,0.2799544419767787,2.3722223648168508E-5,1.0971537027146342E-4,-1.41E-04,-32.44444444,-48.15766903,74.10048004,-49.55029881,-0.158167264,-0.012624115,-0.009950205,0.9872813444693112,-0.028081842,0.01565456,0.31792981213736304,9.905199689772523,-0.154218001,0.2799544419767787,-0.020745084,0.011563102,7.754201685458205E-4,0,0.086023256,1.178552269935608,4.2220001220703125,0.035977796,0,159.79998779296875,-86.912693,40.3888147,9.922991838,40.56024143218994,-17.87007162,Drive
141,0.021584566,0.003380007,-0.001812466,9.945929916,-0.148398563,0.2749132531360515,-2.37E-05,1.5715981756780044E-4,-2.36E-04,-32.5,-48.1422971,73.96286437988282,-49.4049971,-0.159957805,-0.012530278,-0.009777302,0.9869957548900715,-0.027869406,0.015292273,0.3215499045779404,9.945929916,-0.148398563,0.2749132531360515,-0.020792529,0.011610545850928548,6.805312660414255E-4,0,0.086023256,1.039101243019104,4.144999980926514,0.010109545662999153,0,159.5,-86.9126932,40.3888143,9.937387866973877,40.42323528289795,-17.72489162,Drive
142,-0.002502488,0.002755676,0.00198998,9.940885849369382,-0.145741484,0.27928073545104093,1.541944537130953E-4,-1.63E-04,-1.53E-04,-31.22222222,-48.11692112,74.05741432189942,-49.44757507,-0.161678965,-0.012544232,-0.009621409,0.9867166396483634,-0.027873063,0.014931484,0.3250326372466041,9.940885849369382,-0.145741484,0.27928073545104093,-0.020614612,0.011290295836199256,7.635590505053841E-4,0,0.086023256,1.0492429733276367,4.045000076293945,0.014800237,0,159.5,-86.9126933,40.3888142,9.963129873275756,40.51815120697022,-17.76820166,Drive
143,-0.013113864,0.41081710687829454,-0.00145991,9.916587563661428,0.5765034499434898,0.27779750583263546,1.1861111824084254E-5,-5.55E-04,0.005101761,-35,-49.24310291,74.60507278442383,-49.89067921,-0.16478959,-0.015218256,0.005657401,0.9861244472485144,-0.028126693,-0.016176901,0.3309277949981319,9.916587563661428,0.5765034499434898,0.27779750583263546,-0.020756945,0.010898879,0.006018032,0,0.1414213627576828,1.0590296983718872,3.999000072479248,0.006816537,0,159.5,-86.9126933,40.3888142,8.836337833,41.06544303894043,-18.21008574,Drive
144,0.002576865,0.10295162501844388,-0.002128239,9.913629754075727,0.873484808,0.28494916827354616,5.100278084356229E-4,-0.002855563,7.605938482758345E-4,-43.55555556,-49.52394714,74.68290901184082,-49.52492294,-0.169532272,-0.020803498,0.035940161,0.9846451791744788,-0.028870136,-0.077910013,0.3398828274995378,9.913629754075727,0.873484808,0.28494916827354616,-0.020258779,0.008597824,0.001676865,0,0.086023256,1.069053292274475,3.9560000896453857,0.002462176,0,159.5,-86.9126933,40.3888142,8.555981855392456,41.14181507110596,-17.84493973,Drive
145,-0.01012903,0.2463421277629519,-0.031214487,9.909843028,1.2477234220041813,0.2820191224946559,0.008397667,-0.005334535,0.005991344,-30.125,-50.21483318,75.06342666625977,-49.41219498,-0.172468679,-0.024084879,0.046415108,0.9835864866821511,-0.031510421,-0.099786898,0.34559747026961984,9.909843028,1.2477234220041813,0.2820191224946559,-0.01237114,0.006118851,0.006907615,3.548335075378418,0.9027181267738342,1.0790836811065674,3.9000000953674316,1.1269134283065796,344.9671936035156,159.5,-86.9126938,40.3888249,7.865583853721619,41.52428516,-17.73111364,Drive
146,0.036803639852083646,-0.366698789,-0.067759971,9.970395403000914,0.6520093256987415,0.30628129834471973,0.012686827725981576,-0.006660585,-0.008963009,-33.66666667,-50.76029488,74.09194076538085,-49.37413113,-0.174749094,-0.027509467,0.047342271,0.983002779,-0.037726256,-0.102890236,0.3499276334276566,9.970395403000914,0.6520093256987415,0.30628129834471973,-0.008081979,0.004792802,-0.008046738,2.269432544708252,0.6801470518112183,1.0386803150177002,3.9000000953674316,2.162731885910034,344.9533691,159.6999969482422,-86.9127002,40.3888437,7.318779850006104,40.551701126098635,-17.69390368,Drive
147,0.016378023092029164,-0.114731284,-0.428846966,9.988059914227827,0.2593976549467397,-0.5432898,0.1809412607362548,-0.007066257,0.010462983189268237,-30.625,-51.00392914,72.05759086608887,-47.84717896,-0.12896782,0.003256112,0.019027404342461557,0.9909412340053076,0.011444935034375606,-0.037496731,0.25900242484888986,9.988059914227827,0.2593976549467397,-0.5432898,0.1601724541447695,0.004387129,0.011379254114411735,1.654253363609314,0.7144927978515625,1.0486431121826172,3.9000000953674316,3.390578508377075,343.9599609,159.6999969482422,-86.9127104,40.388874,7.075633859634399,38.51674118041992,-16.16707367,Drive
148,0.013922441,-0.106485287,-0.23519472,10.012696636533274,0.5193063978431294,-0.723576206,0.25493087641243795,0.001070465,0.023747428401725963,-27,-51.59843502,68.41723251342773,-46.10660507,-0.01005536,0.024127539,0.031283913,0.9984824495408141,0.048805499575959824,-0.062423318,0.021673553501192516,10.012696636533274,0.5193063978431294,-0.723576206,0.23416206906142745,0.012523851543325859,0.024663699,1.6940556764602661,0.8999999761581421,1.058643102645874,3.9000000953674316,3.708381175994873,334.0224914550781,159.6999969482422,-86.9127242,40.3889084,6.480517892837525,34.87699340820313,-14.42588972,Drive
149,-0.00569975,-0.109908349,-0.134353486,9.987139312966356,0.5309801241315142,-0.740082038,0.25075576693108936,-0.007849091,0.016037705713245583,-27.77777778,-52.50440697,65.16690876,-44.9567551,0.11295492910933726,0.033744566,0.028324205699620894,0.9920240750590574,0.060541569969607786,-0.063929782,-0.224827339,9.987139312966356,0.5309801241315142,-0.740082038,0.22998695885672152,0.003604295,0.016953976711855064,1.7403007745742798,0.8420214056968689,1.0686604976654053,3.9000000953674316,4.425304889678955,319.0690002441406,159.6999969482422,-86.9127531,40.3889407,5.575765910148621,31.627157344818116,-13.27689377,Drive
150,-0.041310338,0.007938752,-0.086333435,9.883490635798527,0.852739292,-0.64739945,0.2173548729963673,0.00709591,-0.006925407,-27,-52.03909904,60.680480766296384,-43.57644699,0.22137545063657668,0.03685421,0.035207873192227006,0.9734227605236386,0.056404112,-0.085068557,-0.44483437,9.883490635798527,0.852739292,-0.64739945,0.1965860665133856,0.018549296,-0.006009136,1.7802622318267822,0.9929753541946411,1.0786043405532837,3.9000000953674316,5.029019355773926,304.12554931640625,159.6999969482422,-86.9128097,40.388965,6.041439900398254,27.13999761581421,-11.89573185,Drive
151,0.034675043,-0.116035875,-0.215982145,9.989758667436618,0.7576390840474841,-0.972171318,0.21319162411597167,1.69020869488855E-4,0.006181122,-26.88888889,-50.94658913,58.30062698364258,-42.04022305,0.3154018784610971,0.049457216,0.029398414514307837,0.9467857387459394,0.075506383,-0.087189273,-0.639842268,9.989758667436618,0.7576390840474841,-0.972171318,0.19242281589693236,0.011622406986487794,0.007097393,1.8349072933197021,1.0381232500076294,1.037725806236267,3.9000000953674316,5.584892272949219,291.08563232421875,159.6999969482422,-86.9128723,40.3889875,7.133095879554748,24.760143489837645,-10.36048387,Drive
152,0.031639766,-0.160663001,-0.197878615,10.027434015736997,0.6727722867095879,-1.075213689,0.2127527627840783,-0.011383702,0.004852677,-26.25,-51.426903,54.42432087,-42.3981712,0.4053195055248668,0.056700987470092126,0.020075178,0.9117689341017343,0.08763653,-0.082788962,-0.832981746,10.027434015736997,0.6727722867095879,-1.075213689,0.19198395557773923,6.968415120743143E-5,0.005768948,1.8149363994598389,1.0220078229904175,1.0478047132492065,3.9000000953674316,6.637093544006348,279.04156494140625,159.6999969482422,-86.9129518,40.3890032,6.652171854972839,20.884691619873045,-10.7179438,Drive
153,-0.049231872,-0.04279392,0.10655849217211158,9.943769417920159,0.8218097079147413,-0.571913648,0.15529753737947316,-0.016068841,0.006026927,-29.88888889,-51.91148697,50.34512916564941,-43.65830902,0.4809071875891639,0.05076065,0.021272782055498325,0.8748034070996404,0.068616233,-0.08592601,-1.002340717,9.943769417920159,0.8218097079147413,-0.571913648,0.1345287306071485,-0.004615455,0.006943198,1.7764865159988403,0.9847334623336792,1.057677984237671,3.9000000953674316,7.494505882263184,266.0043640136719,159.6999969482422,-86.9130415,40.389007,6.16770987,16.80537769317627,-11.97869172,Drive
154,-0.038051293,0.026281896118934337,0.3598236944526434,9.884294435815903,0.9730947607929267,0.3728447470190094,0.051287676,-0.00871632,-5.87E-04,-22.875,-52.68460117,48.477309226989746,-44.72910309,0.5166532964660571,0.024190669789767034,0.040950681,0.8547802510169836,-9.72E-04,-0.095072492,-1.087403058,9.884294435815903,0.9730947607929267,0.3728447470190094,0.030518868991818566,0.002737066,3.2891778111941396E-4,1.8533233404159546,1.212023138999939,1.0677541494369507,3.9000000953674316,7.904147624969482,257.01263427734375,159.6999969482422,-86.9131355,40.3890009,5.394107862,14.935971717834473,-13.04997375,Drive
155,0.012077479686551882,-0.017953977,0.074902608,9.913812729918842,0.943370327,0.5588373414521078,0.017447695633378422,-3.29E-04,0.001187594,-21.44444444,-52.86589302,48.05579891204834,-45.04032536,0.5143206923910715,0.00403597,0.053950246,0.8558842036330584,-0.048835849,-0.096660365,-1.084557791,9.913812729918842,0.943370327,0.5588373414521078,-0.003321111,0.01112424,0.002103865,1.813439965248108,0.9794896841049194,1.0777113437652588,3.9000000953674316,9.449406623840332,253.97872924804688,159.6999969482422,-86.9132506,40.3889794,5.214157862663269,14.516169719696045,-13.35960973,Drive
156,0.014359705656477548,-0.087171404,-0.063858154,9.945645360113348,0.7960955747990932,0.4141151262718497,0.028644585,2.401874895722976E-4,-1.65E-04,-23.11111111,-52.89114689,47.45153289794922,-45.19855927,0.5077107340386771,0.00188227,0.050331875573373534,0.8600451957832262,-0.048091095,-0.088597397,-1.068698625,9.945645360113348,0.7960955747990932,0.4141151262718497,0.007875778,0.011693573739375124,7.516979720235522E-4,0.8464592099189758,0.9027181267738342,1.0876775979995728,3.9000000953674316,10.635650634765625,253.98060607910156,159.6999969482422,-86.9133775,40.388958,5.189269876480102,13.91165974,-13.51808775,Drive
157,0.013055171781373255,-0.055262811,0.11883687322000855,9.964993320978605,0.698661073,0.6313859440672857,0.014162167490830699,-0.006141091,0.001175733,-30.75,-52.94385082,47.006843147277834,-45.39156303,0.5016358873797852,-0.003157089,0.045420527,0.8638539887169032,-0.05120061,-0.075410417,-1.054121256,9.964993320978605,0.698661073,0.6313859440672857,-0.006606639,0.005312295,0.002092004,0.5155604481697083,0.888650656,1.0978102684020996,3.9000000953674316,11.747872352600098,252.98541259765625,159.6999969482422,-86.9135141,40.3889295,5.135711894,13.46757978439331,-13.71133573,Drive
158,-0.006150949,-0.039536125,0.013635475658675998,9.965746175895617,0.6157801324881397,0.7772230592746179,0.001838472,1.4529862323576964E-4,0.001828094,-26.88888889,-52.97203289,46.92376129150391,-45.64995911,0.49158771205874324,-0.017148249,0.047352202,0.8693646950629151,-0.076615169,-0.065521152,-1.031776667,9.965746175895617,0.6157801324881397,0.7772230592746179,-0.018930335,0.011598684774142084,0.002744365,1.1129577159881592,0.2545584440231323,1.1077005863189697,3.9000000953674316,12.878717422485352,252.99996948242188,159.6999969482422,-86.9136557,40.3888919,5.107773909568786,13.383887786865234,-13.97095172,Drive
159,0.010622089348950432,-0.013658436,-0.104420722,9.947469035398614,0.591340815,0.5405572205781937,0.017423973292184685,-0.001788063,-1.04E-05,-22.375,-52.96434704,46.70342914581299,-45.62751106,0.48394347134145715,-0.013696381,0.042432166,0.8739565275247815,-0.065180197,-0.060938824,-1.013408086,9.947469035398614,0.591340815,0.5405572205781937,-0.003344834,0.009665324,9.058924263017704E-4,0.952781081,0.26870056986808777,1.117776632,3.9000000953674316,13.718999862670898,252.00062561035156,159.6999969482422,-86.913805,40.3888569,5.114971880912781,13.16404372215271,-13.94862571,Drive
160,0.033787126,-0.044433394,-0.093908232,10.016233666429242,0.521789245,0.38016840851711997,0.028158279479417986,0.002339604,0.004437538,-20.22222222,-52.96007698,46.248491020202636,-45.76854317,0.47715831757749166,-0.007301423,0.036231382668597024,0.8780344898260913,-0.047495336,-0.056678688,-0.996933976,10.016233666429242,0.521789245,0.38016840851711997,0.007389473,0.013792991,0.005353809,0.8705039024353027,0.2475883662700653,1.1276977062225342,3.9000000953674316,14.579090118408203,251.9998321533203,159.6999969482422,-86.9139667,40.3888166,5.120095896720886,12.707885751724243,-14.0879497,Drive
161,-0.052244627,-0.039200889,-0.01970797,9.905916963966147,0.4462817510933552,0.3332528236313063,0.027934515,0.002713571,-0.002231942,-18,-52.97593712,45.55955699920654,-45.88053917,0.47409253223584247,-0.004032902,0.029770147413588487,0.8799602309098611,-0.035376105,-0.048588115,-0.989216645,9.905916963966147,0.4462817510933552,0.3332528236313063,0.007165708,0.014166957716672467,-0.001315671,0.8775452971458435,0.2420743703842163,1.1377732753753662,3.9000000953674316,15.289276123046875,250.00181579589844,159.6999969482422,-86.9141394,40.3887707,5.103381934165955,12.019927787780762,-14.20018973,Drive
162,-0.003296871,-0.053706994,0.086676991,9.946409077320284,0.35513379145413637,0.5220099411977147,0.01738839,0.002754743,9.85954917551389E-4,-16.22222222,-52.90115097,45.27090503692627,-46.07842308,0.468425232,-0.009679477,0.028356255619849974,0.8829882353254892,-0.043713816,-0.041030264,-0.976390501,9.946409077320284,0.35513379145413637,0.5220099411977147,-0.003380417,0.014208129432518035,0.001902226,0.8330447673797607,0.191049725,1.147694706916809,3.9000000953674316,15.919524192810059,249.0010223388672,159.6999969482422,-86.9143166,40.3887189,5.1791438865661625,11.730787830352783,-14.39904974,Drive
163,0.015400784686931129,-0.095042522,0.07564035,9.977658021797254,0.24103913056433598,0.5610152734714804,0.006452445,4.892708503107712E-4,0.002029733,-21.44444444,-52.92420891,44.97932514190674,-45.93824512,0.46045944384000836,-0.013831438,0.026152284219137675,0.8871772850601418,-0.048684269,-0.03368373,-0.958304561,9.977658021797254,0.24103913056433598,0.5610152734714804,-0.014316362,0.011942657032298847,0.002946004,0.7413530945777893,0.17691805958747864,1.1577495336532593,3.9000000953674316,16.54956817626953,247.00157165527344,159.6999969482422,-86.914494,40.3886627,5.156085901260376,11.439085779190064,-14.25777375,Drive
164,-0.086981755,-0.077345282,-0.083288189,9.89402252,0.07610729,0.4000672927985971,0.020318084495883543,0.001355132,-0.001267656,-28,-53.0508448,44.60734718322754,-46.25422493,0.4506916967989172,-0.018216027,0.017754139134533775,0.8923033,-0.048553896,-0.01525103,-0.935800989,9.89402252,0.07610729,0.4000672927985971,-4.51E-04,0.012808518191501136,-3.51E-04,0.7624216675758362,0.3440930247306824,1.1678111553192139,3.9000000953674316,17.049108505249023,246.9995117,159.6999969482422,-86.9146836,40.3886022,5.028961906433105,11.067473783493043,-14.57387573,Drive
165,0.074925673,-0.012327793,-0.012132644,9.974640901806286,0.090506193,0.2423546023379211,0.020377390149944614,0.010986354884700579,3.573159321021397E-4,-29.33333333,-52.88736504,44.34504715,-45.8695591,0.44197678334504653,-0.009228557,0.010367735695925731,0.8969099782045605,-0.025726606,-0.010429531,-0.915842058,9.974640901806286,0.090506193,0.2423546023379211,-3.91E-04,0.022439741,0.001273587,0.7337493896484375,0.1984943300485611,1.1777364015579224,3.9000000953674316,17.289806365966797,246.0008544921875,159.6999969482422,-86.9148727,40.3885406,5.191953878,10.804563789367675,-14.19018575,Drive
166,0.10511962649891678,-0.010308369,0.1435082873094429,9.968455592,0.054271193,0.4740837949319083,0.006891306,-0.006852758,1.7939913945579992E-4,-21.5,-52.85064316,44.17473503112793,-45.8702911,0.4306801982875009,-0.013473897,0.009923089,0.9023289883021012,-0.03287479,-0.006334013,-0.890743947,9.968455592,0.054271193,0.4740837949319083,-0.013877501,0.004600629,0.00109567,0.4115012586116791,0.092195444,1.1878347396850586,3.9000000953674316,17.699913024902344,245.0002899169922,159.6999969482422,-86.9150606,40.3884763,5.229163866043091,10.634617795944214,-14.19164971,Drive
167,0.054707045693999354,-0.008009859,0.065832364,9.839109596696872,0.054712587,0.45763604400806057,0.007009917,0.019158660734831853,-0.003189157,-25.55555556,-51.82376904,44.23854110717773,-43.99185699,0.4197020371562069,-0.016904287,0.011555412449666019,0.9074233834025929,-0.040393882,-0.006771472,-0.866573051,9.839109596696872,0.054712587,0.45763604400806057,-0.01375889,0.030612047,-0.002272886,0.6468327045440674,0.191049725,1.1977134943008423,3.9000000953674316,17.959814071655273,244.00071716308594,159.6999969482422,-86.9152495,40.3884091,6.2573798608779905,10.697569799423217,-12.31187382,Drive
168,0.003978995,-0.006076996,-0.010401087,9.908237198,0.03939736,0.22222469205904788,0.008387403,0.01235791,-0.002525619,-18.125,-52.15011902,44.121421089172365,-43.619757,0.4111727582147488,-0.009897454,0.006950476,0.9114705312710542,-0.02376152,-0.004520018,-0.847606336,9.908237198,0.03939736,0.22222469205904788,-0.012381404,0.023811296,-0.001609348,0.6279118061065674,0.20518285036087036,1.2077113389968872,3.9000000953674316,18.27976417541504,244,159.6999969482422,-86.9154452,40.3883395,5.930053896903992,10.58142580986023,-11.94013978,Drive
169,0.1018070665378015,-0.028678821,0.049981328,10.091346203702168,0.010393097029221289,0.22948446850862028,0.00330925,0.011757327006334096,0.005433872,-24.77777778,-51.77143089,43.91084911346436,-43.32829937,0.40113561014527255,-0.007442132,0.005393504,0.9159656954043119,-0.017962269,-0.003906219,-0.825590198,10.091346203702168,0.010393097029221289,0.22948446850862028,-0.017459557,0.023210713526830802,0.006350143,0.6520647406578064,0.1984943300485611,1.217691183,3.9000000953674316,18.589773178100586,244.00001525878906,159.6999969482422,-86.9156479,40.388265,6.309839864,10.371463804244994,-11.64819384,Drive
170,-0.062621117,-0.029952969,0.019356947,9.940357310100666,-0.013436397,0.17972305139472472,6.642222621487182E-4,0.004581354,8.43621517454717E-4,-24,-50.96903694,43.701009063720704,-43.42138531,0.3892787437415817,-0.00705891,0.003876679,0.921075688,-0.016027603,-0.001646892,-0.799744389,9.940357310100666,-0.013436397,0.17972305139472472,-0.020104584,0.016034741,0.001759893,0.6347570419311523,0.1984943300485611,1.227790355682373,3.884999990463257,18.909761428833008,243.00074768066406,159.6999969482422,-86.9158487,40.3881912,7.110525875091553,10.161257791519166,-11.74164579,Drive
171,0.024636185284957146,-0.041205904,-0.039048707,9.985596913557787,-0.086204887,0.051336399,0.005966139,-1.75E-04,0.002883733,-24.25,-51.03259907,43.61804908752441,-43.53691925,0.37774498051810035,-0.005045686,-3.80E-04,0.9258872554140184,-0.009064333,0.004524462,-0.774718578,9.985596913557787,-0.086204887,0.051336399,-0.014802668,0.011278434765629146,0.003800004,0.5848918557167053,0.2126029133796692,1.237918496131897,3.884999990463257,19.129833221435547,242.99998474121094,159.6999969482422,-86.9160488,40.388117,7.047329855,10.078053841590881,-11.85595979,Drive
172,-0.065318645,-0.054368607,0.077920294,9.879741039090943,-0.192192444,0.2592466527921627,-0.003048306,-0.002736952,-0.003794073,-21.77777778,-50.623899,43.563880882263184,-43.95733116,0.3631160458893452,-0.010894082,-0.003078945,0.9316528375866344,-0.018087818,0.013621203,-0.743152855,9.879741039090943,-0.192192444,0.2592466527921627,-0.023817113,0.008716435,-0.002877802,0.6153039932250977,0.2121320366859436,1.2478158473968506,3.884999990463257,19.299863815307617,243,159.6999969482422,-86.9162563,40.3880378,7.456883850097657,10.023763794898986,-12.27832376,Drive
173,0.029083622,-0.031020781,0.008717672,9.961869517576348,-0.247674566,0.23815264320001006,-0.002478972,3.113542102476202E-4,-9.36E-04,-23,-50.91682106,43.91206928253174,-44.31698708,0.3470423910224322,-0.014629095,-0.006193419,0.9377022761743046,-0.023151675,0.021770911038066578,-0.708681314,9.961869517576348,-0.247674566,0.23815264320001006,-0.023247779,0.011764740436315283,-1.93E-05,0.6084445714950562,0.24041630327701569,1.2577533721923828,3.884999990463257,19.37992286682129,242.99998474121094,159.6999969482422,-86.9164613,40.3879608,7.163717861175537,10.371585798263549,-12.63700377,Drive
174,-0.035299394,-0.13039134,0.10768689967474891,9.910589357024257,-0.504987216,0.4404971601025572,-0.011920417,-0.001930396,-9.83E-04,-22.44444444,-51.25512703,43.89450122833252,-44.77778099,0.32835520095038184,-0.02173161,-0.012336402,0.9441864635180501,-0.033018369,0.037535885,-0.668722263,9.910589357024257,-0.504987216,0.4404971601025572,-0.032689224,0.00952299,-6.67E-05,0.5630859136581421,0.19798989593982697,1.2677265405654907,3.884999990463257,19.370006561279297,243,159.6999969482422,-86.9166593,40.3878857,6.824435896873474,10.35462779045105,-13.09730974,Drive
175,0.021685646,-0.167744603,0.059400512,9.931904061326703,-0.820993708,0.6261761307137684,-0.020298924,8.457885202145777E-4,-7.28E-04,-26.375,-49.67888706,43.65037933349609,-44.20633324,0.30457231860894424,-0.037071788,-0.022458027,0.9514647315327938,-0.057088729,0.065354977,-0.617723605,9.931904061326703,-0.820993708,0.6261761307137684,-0.041067731,0.012299174714896183,1.8795301226558737E-4,0.5633675456047058,0.191049725,1.2778136730194092,3.9000000953674316,19.19011116027832,243.99935913085938,159.6999969482422,-86.9168625,40.3878104,8.402017874717712,10.110993843078614,-12.52634975,Drive
176,-0.024114757,-0.163876707,-0.03094451,9.889582421015767,-1.059770693,0.532705045,-0.016605557,8.451042174660031E-4,-0.004529462,-23.66666667,-49.58970509,44.28770709991455,-44.23268505,0.2821861450533265,-0.039842127,-0.035158488,0.957853386,-0.056799364,0.089971852,-0.570439736,9.889582421015767,-1.059770693,0.532705045,-0.037374363,0.01229849,-0.003613191,0.283294141,0.092195444,1.2878261804580688,3.9000000953674316,18.600088119506836,244.99984741210938,159.6999969482422,-86.9170625,40.3877398,8.491077852249145,10.747345781326294,-12.55233578,Drive
177,0.007010015,-0.111703338,-0.119105308,9.878686951202097,-1.348018702,0.3273898276129683,-0.006962473,0.00122466,-0.002038629,-21.88888889,-50.12845695,44.30978923797608,-43.80226902,0.26170146638907277,-0.037970542,-0.054132309,0.9628562325412787,-0.045185317,0.12447049114310625,-0.527970463,9.878686951202097,-1.348018702,0.3273898276129683,-0.027731279,0.012678045980085265,-0.001122358,0.5836213231086731,0.20518285036087036,1.2977088689804077,3.9000000953674316,18.010408401489258,245.99940490722656,159.6999969482422,-86.917262,40.3876738,7.951837849617005,10.769793758392334,-12.12277379,Drive
178,4.994197956566671E-4,-0.010897357,-0.197050781,9.892501179988567,-1.336000308,-0.08625378,0.017696778990726157,0.004439021,-9.00E-04,-21,-49.60373512,44.70665500640869,-43.74919918,0.2513138536110665,-0.02223422,-0.063003296,0.9655768969683971,-0.011372178,0.13325242249711047,-0.508499656,9.892501179988567,-1.336000308,-0.08625378,-0.003072028,0.015892407320579966,1.6309130480241716E-5,0.6087725758552551,0.20518285036087036,1.3078416585922241,3.9000000953674316,16.950733184814453,246.00015258789062,159.6999969482422,-86.9174505,40.3876131,8.476437826156616,11.166781826019287,-12.0688498,Drive
179,0.054582818,-0.141473342,-0.034889654,9.946136113509391,-1.56420907,-0.233541232,0.023579890233943763,0.002327743,-1.17E-04,-24.88888889,-49.73952099,44.320037078857425,-43.09857296,0.2462420219067231,-0.007885757,-0.071318854,0.9665320208929118,0.02005881,0.14223978342940508,-0.500359092,9.946136113509391,-1.56420907,-0.233541232,0.002811084,0.013781129347513096,7.991423684588262E-4,0.6355729103088379,0.20518285036087036,1.3176512718200684,3.9000000953674316,15.940714836120605,246.00018310546875,159.6999969482422,-86.917625,40.3875551,8.340773849487304,10.780041770935059,-11.41956576,Drive
180,-0.056205444,-0.239156466,0.10579428196098041,9.819360057,-2.111003895,-0.012486818,0.013699584,-0.003163952,-0.006356073,-23.375,-48.46230316,43.78238315582276,-43.38100319,0.2284004938544579,-0.015400867,-0.092238617,0.9690211363209104,0.012417685358052693,0.18686935913215563,-0.464073779,9.819360057,-2.111003895,-0.012486818,-0.007069223,0.008289435,-0.005439802,0.7242088913917542,0.2121320366859436,1.3277679681777954,3.9000000953674316,14.780865669250488,245.00091552734375,159.6999969482422,-86.9177911,40.3874966,9.617137794,10.241899828910828,-11.70114176,Drive
181,0.004487362,-0.043506152,0.094543016,9.87382874,-2.164650743,0.17469928418150515,3.083889255101241E-4,-0.001195007,-0.001338823,-23.11111111,-48.85319103,44.15765514373779,-43.31158524,0.2078344288092215,-0.025972944,-0.102525868,0.9724086638793205,-0.008089554,0.21174734512579094,-0.420261125,9.87382874,-2.164650743,0.17469928418150515,-0.020460418,0.010258379154409128,-4.23E-04,0.731016994,0.17691805958747864,1.337718129,3.9000000953674316,13.150883674621582,244.0006866455078,159.6999969482422,-86.9179323,40.3874442,9.227591791152953,10.617781767845154,-11.63233381,Drive
182,0.015856348551236667,0.07582367,0.017856079655197952,9.921150855647708,-1.960912347,0.1842996145375932,-0.0013979,0.002149712,0.005474131,-24.75,-48.7322892,43.63207927703857,-43.18665722,0.1892289612442255,-0.027404882,-0.097912514,0.9766377886900535,-0.016790876,0.20301960036158562,-0.381061113,9.921150855647708,-1.960912347,0.1842996145375932,-0.022166707,0.013603099,0.006390402,0.8123331665992737,0.191049725,1.3477104902267456,3.9000000953674316,11.391040802001953,244.00039672851562,159.6999969482422,-86.9180577,40.3873969,9.348005862236024,10.092815790176392,-11.5063078,Drive
183,0.008588124,-0.00576965,-0.005658325,9.923386851560723,-1.959384889,0.1577143103598608,-0.001470778,-5.90E-04,6.063992753218028E-4,-29.77777778,-49.23810112,44.29368518829346,-42.4466053,0.17292248884451042,-0.024872175,-0.094222874,0.9800904445277835,-0.016474292,0.19452351027900733,-0.347669027,9.923386851560723,-1.959384889,0.1577143103598608,-0.022239585,0.010863295907733364,0.00152267,0.9186339974403381,0.21931712329387665,1.3578541278839111,3.9000000953674316,9.751170158,244.00096130371094,159.6999969482422,-86.9181657,40.3873565,8.842071819,10.753689794540405,-10.76747576,Drive
184,-0.0158028,0.1851151429333733,0.009312339,9.904758287,-1.627598548,0.19453880347727429,-0.004412334,-9.46E-04,0.006276011,-30.66666667,-49.64253098,43.57303131103516,-41.84319328,0.15757518370174667,-0.023403061,-0.08762519,0.983302936,-0.018662778,0.18068926325700815,-0.316117726,9.904758287,-1.627598548,0.19453880347727429,-0.02518114,0.010507462558662067,0.007192282,1.056652307510376,0.17691805958747864,1.367768645,3.9000000953674316,8.180806159973145,244.0004119873047,159.6999969482422,-86.9182556,40.3873232,8.437153831,10.033523788452149,-10.16308783,Drive
185,-0.010058514,0.16975946102327513,0.039674732363918455,9.917090865281912,-1.226727114,0.25515197022244906,-0.011374806,-1.16E-04,0.001080844,-31.875,-48.73643707,43.14847133636474,-41.26369305,0.14541088449723513,-0.020810861,-0.067561982,0.9868204680461328,-0.021594547,0.13984480673827013,-0.291101431,9.917090865281912,-1.226727114,0.25515197022244906,-0.032143613,0.011337740402171406,0.001997115,0.5528748631477356,0.13601469993591309,1.377827763557434,3.878999948501587,6.520410060882568,244.00091552734375,159.6999969482422,-86.9183322,40.3872952,9.343003797531129,9.607621817588806,-9.584319825,Drive
186,-0.008418963,0.038113379941403285,0.10394202794843507,9.908399785606607,-1.162667875,0.5210603631815864,-0.052449836,-0.003199535,0.001709483,-30,-50.33183102,44.96492923736572,-42.12159718,0.12001491193343135,-0.027819789,-0.057322717,0.9906318899497245,-0.041640381,0.12045962725160192,-0.238625075,9.908399785606607,-1.162667875,0.5210603631815864,-0.073218643,0.008253851,0.002625754,1.422146201133728,0.2121320366859436,1.387687087059021,3.881999969482422,5.773122310638428,244.0645294189453,159.6999969482422,-86.9183956,40.3872724,7.748219833374024,11.424079833030701,-10.44234575,Drive
187,0.015249604160345874,-0.216437613,0.038080689,9.915557953917865,-1.572476509,0.6690581831538561,-0.100167089,0.002256577,-8.88E-04,-26.25,-47.90610516,45.28578918457031,-42.24908714,0.062148421044343885,-0.035706901,-0.06563402,0.9950661485634961,-0.063766262,0.13546402347319333,-0.120390985,9.915557953917865,-1.572476509,0.6690581831538561,-0.120935897,0.013709962726299407,2.81701614917482E-5,1.6568489074707031,0.21931712329387665,1.3977117538452148,3.878999948501587,4.842210292816162,246.9748535,159.6999969482422,-86.9184506,40.3872543,10.173945755958558,11.744695792198181,-10.56885982,Drive
188,-0.003015759,0.052595236,-0.138158709,9.895131750014222,-1.337358456,0.5497045399060527,-0.131172036,0.008021077,-0.006201879,-28.44444444,-49.47892902,48.46645114898681,-42.44550713,-0.009992373,-0.034014621,-0.070082002,0.9966670888141521,-0.069908576,0.1395633227906181,0.024936221890350423,9.895131750014222,-1.337358456,0.5497045399060527,-0.151940842,0.019474463266641515,-0.005285608,2.3288321495056152,0.3047950267791748,1.4078152179718018,3.881999969482422,3.718920946121216,252.08319091796875,159.6999969482422,-86.9184953,40.3872425,8.600633831,14.926577701568604,-10.76625575,Drive
189,-0.019244818,0.011223489275345435,-0.20009391,9.847562826952888,-1.327877179,0.2412249807593892,-0.103667828,0.010466632750019645,-4.82E-04,-34.25,-51.41031097,50.44846298217774,-40.70859325,-0.075363602,-0.017003811,-0.068584687,0.9945167767313811,-0.044563956,0.13443480231440985,0.15427233228603235,9.847562826952888,-1.327877179,0.2412249807593892,-0.124436635,0.021920019156263713,4.3464132893579797E-4,2.8730556964874268,0.4661544859409332,1.4176386594772339,3.881999969482422,2.732628583908081,259.5478516,159.6999969482422,-86.9185267,40.3872385,6.669495878219604,16.908589630126954,-9.028731823,Drive
190,0.018253095,0.22187143911435767,-0.107972078,9.903044914,-0.910149584,0.063511437,-0.051441642,0.002944521,-3.41E-05,-33.88888889,-50.96769512,51.873667030334474,-40.0761451,-0.112319998,-0.002216556,-0.057573454,0.9919474859839504,-0.017357276,0.11400855332612991,0.22651640882769836,9.903044914,-0.910149584,0.063511437,-0.072210449,0.014397907229615104,8.821701919162665E-4,1.6001272201538086,0.37643060088157654,10.41931438446045,3.9000000953674316,1.4515180587768555,266.5390625,158.1999969482422,-86.9185469,40.3872378,7.112355838,18.333915729522705,-8.395307903,Drive
191,0.011103704137709534,0.080312737,-0.046490269,9.934029653,-0.744420483,0.024401564,-0.019535251,0.002375188,-6.39E-04,-33.125,-50.82251492,52.60554500579834,-39.75931103,-0.121419546,0.001494608,-0.041576068,0.9917257815888785,-0.007153637,0.082924134,0.2439536181757751,9.934029653,-0.744420483,0.024401564,-0.040304058,0.013828573843975126,2.7725346797842135E-4,1.007688045501709,0.7017834186553955,10.42905330657959,3.9000000953674316,0.9432347416877747,269.9990234,158.1999969482422,-86.918556,40.3872382,7.257169847488403,19.064695644378663,-8.079571843,Drive
192,0.003178559,0.20953750783957323,0.00994359,9.935525940014767,-0.38003603,0.055526715,-8.54E-04,-1.04E-04,0.001033399,-32.88888889,-50.84850086,52.77451496124267,-39.75235725,-0.12588705,0.001429283,-0.029671055,0.9915746311539585,-0.004617118,0.059238335099613786,0.2526939259570779,9.935525940014767,-0.38003603,0.055526715,-0.021622807,0.011349601458613445,0.00194967,45,0.080622576,10.439098358154297,3.9000000953674316,0.9364343285560608,269.9990539550781,158.1999969482422,-86.9185598,40.3872402,7.231671833992005,19.233543701171875,-8.071885877,Drive
193,-2.91E-04,0.057693423,0.002136815,9.936556130937003,-0.276719484,0.060421676,1.541944537130953E-4,-1.16E-04,3.7066016834482403E-5,-31.44444444,-50.99502296,52.77585670471191,-39.82921711,-0.131294838,-7.12E-04,-0.017083704,0.9911941527162941,-0.00589694,0.033685952533506654,0.2634882869072331,9.936556130937003,-0.276719484,0.060421676,-0.020614612,0.01133774,9.533368391256092E-4,45,0.15556348860263824,10.449203491210938,3.9000000953674316,0.9070457220077515,270.0080871582031,158.1999969482422,-86.9185611,40.3872403,7.085149827003479,19.235007648468017,-8.14935586,Drive
194,-0.018943064,0.005608667,-0.00170894,9.901410056549368,-0.282390822,0.060909532865021127,2.965277956021064E-4,-3.41E-04,6.078823878728215E-5,-31.375,-50.89852108,52.774515037536624,-39.75760323,-0.134925166,-0.001122471,-0.014893457,0.990742753,-0.006245538,0.029212415272605072,0.2707975929223218,9.901410056549368,-0.282390822,0.060909532865021127,-0.020472279,0.011112379271862576,9.770590639040235E-4,45,0.1526433825492859,10.459037780761719,3.9000000953674316,0.8755378127098083,270.01153564453125,158.1999969482422,-86.9185597,40.3872403,7.181529870033264,19.23512954711914,-8.077741861,Drive
195,-0.008636752,0.002893928,-2.16E-04,9.877688000503095,-0.284873667,0.061075056038991306,1.4233334188901105E-4,-2.22E-04,2.520489992429186E-5,-31.88888889,-51.0461409,52.75389705657959,-39.80920918,-0.137980669,-0.001130719,-0.014686003,0.990325017,-0.006294998,0.028779760147761374,0.2769655070258576,9.877688000503095,-0.284873667,0.061075056038991306,-0.020626473,0.011230990385582435,9.414757256061562E-4,45,0.13038404285907745,10.46909236907959,3.9000000953674316,0.3930756747722626,270.0380859,158.1999969482422,-86.9185585,40.3872403,7.033787860870361,19.214511528015137,-8.128371906,Drive
196,0.007844952,-6.00E-04,-7.26E-04,9.900480881478023,-0.282480844,0.06270415,8.222943870350718E-5,-2.58E-04,5.8735356455704627E-5,-32.625,-51.01442089,52.79208286,-39.77151131,-0.140843524,-0.001132614,-0.014648979,0.9899225017199149,-0.006371461,0.028687573987274215,0.28274896282416123,9.900480881478023,-0.282480844,0.06270415,-0.020686577,0.011194950833809204,9.750061760244605E-4,45,0.10816653817892075,10.479118347167969,3.9100000858306885,0.1248074471950531,270.0577697753906,158.1999969482422,-86.9185578,40.3872403,7.066605849266052,19.252331562042237,-8.089941854,Drive
197,0.013461038904282654,0.001957003,-5.31E-04,9.927208465279884,-0.278313732,0.063627593,1.304722300649268E-4,-1.04E-04,1.3195491255740227E-4,-32.22222222,-51.00697895,52.810383071899416,-39.66695713,-0.143499341,-0.001179394,-0.014448983,0.9895439558816188,-0.006483467,0.028261095,0.28811508,9.927208465279884,-0.278313732,0.063627593,-0.020638334,0.011349601512865244,0.001048226,0,0.10816653817892075,9.620420455932617,3.9100000858306885,0.036440372467041016,0,159.5,-86.9185575,40.3872403,7.073925852775574,19.270509605407714,-7.987095847,Drive
198,0.011371344,7.552151541108066E-4,-0.002397185,9.951377628,-0.276156125,0.060398444,9.488889459267403E-5,-3.88E-04,1.3343789795576369E-5,-32.125,-50.98721481,52.819167098999024,-39.74345119,-0.145887363,-0.001098253,-0.014236314,0.9891979231417758,-0.006329059,0.027848257,0.2929380119425579,9.951377628,-0.276156125,0.060398444,-0.020673918,0.011064934820045256,9.296146166076865E-4,0,0.13038404285907745,9.630452156066895,3.9079999923706055,0.010266119614243507,0,159.5,-86.9185574,40.3872403,7.092469863891601,19.27880558013916,-8.062491827,Drive
199,-0.024967453,-0.003216949,-0.001100462,9.904289823312025,-0.282965658,0.06186827,1.4381600403706135E-4,-1.19E-05,1.3343793186313897E-5,-32.55555556,-50.89034679,52.82026515960693,-39.76431309,-0.148187018,-0.00106357,-0.014365721,0.9888542172978225,-0.006363726,0.028099718783954973,0.29759017067048155,9.904289823312025,-0.282965658,0.06186827,-0.020531584,0.011254712582104703,9.296146132169491E-4,0,0.09433981,9.640360832214355,3.9100000858306885,0.002851668,0,159.5,-86.9185574,40.3872403,7.189215856,19.280147590637206,-8.08420785,Drive
200,8.239005375834345E-4,0.011031115,0.00242537,9.894609080934988,-0.266500623,0.065625484,-2.00E-04,4.7444447296337016E-5,1.3195491481789398E-4,-32,-50.99172882,52.82770709991455,-39.78688293,-0.150358704,-9.87E-04,-0.014491645,0.988524552,-0.006310824,0.028357773404387596,0.30198380669343816,9.894609080934988,-0.266500623,0.065625484,-0.020816251,0.011195407054631167,0.001048226,0,0.10000000149011612,9.650463104248047,3.9100000858306885,7.692328072153032E-4,0,159.5,-86.9185574,40.3872403,7.088077850341797,19.287711563110353,-8.106899843,Drive
