seconds_elapsed,magnetometer_z,magnetometer_y,magnetometer_x,magnetometerUncalibrated_z,magnetometerUncalibrated_y,magnetometerUncalibrated_x,gyroscope_z,gyroscope_y,gyroscope_x,totalAcceleration_z,totalAcceleration_y,totalAcceleration_x,microphone_dBFS,accelerometer_z,accelerometer_y,accelerometer_x,location_bearingAccuracy,location_speedAccuracy,location_verticalAccuracy,location_horizontalAccuracy,location_speed,location_bearing,location_altitude,location_longitude,location_latitude,accelerometerUncalibrated_z,accelerometerUncalibrated_y,accelerometerUncalibrated_x,orientation_qz,orientation_qy,orientation_qx,orientation_qw,orientation_roll,orientation_pitch,orientation_yaw,gyroscopeUncalibrated_z,gyroscopeUncalibrated_y,gyroscopeUncalibrated_x,class
0,-52.77859323,12.304571233476912,19.70648536682129,-114.3346999,55.94845939405037,-8.580666455,9.162708884105086E-5,0.001924169,-4.28E-04,9.933880179268973,0.4072926001889365,-0.076066123,-141.6363636,2.0384788513183594E-4,-3.07E-05,6.565389533837636E-5,45,1.5,1,11.505000114440918,0,0,160.1999969482422,-86.9155121,40.3848606,9.934777783,0.40751313682525386,-0.076425597,0.4431012065874206,0.012508473540138867,0.016671262526263792,0.896229206,0.007653336,-0.04097912,-0.918168166,-0.020997874,0.015576605,3.8177953683771193E-4,Home
1,-52.74523502,12.429481735229492,19.710319652557374,-114.3050916,56.05033691,-8.60978385,8.89583386806319E-6,0.001862195,-4.63E-04,9.898529404575385,0.4043521802980923,-0.074064249,-144.5,-0.019065635,3.734549272407606E-4,0.008097359,45,1.5,1,11.505000114440918,0,0,160.1999969482422,-86.9155121,40.3848606,9.898529404575385,0.4043521802980923,-0.074064249,0.4439111392474869,0.012741967,0.016395672830273805,0.8958301208551648,0.008279819,-0.04069936,-0.919962711,-0.021065334,0.015453546,3.0097571253613793E-4,Home
2,-52.78573898,12.458273735046387,19.71800563812256,-114.3462053,56.07839698791504,-8.602219868,-2.97E-06,0.001897778,-5.10E-04,9.876007199287415,0.40187916360222375,-0.074430589,-150,-0.011686186,0.001590322,0.010161653595063293,45,1.5,1,11.505000114440918,0,0,160.1999969482422,-86.9155121,40.3848606,9.876007199287415,0.40187916360222375,-0.074430589,0.44434903171455975,0.012815796290931193,0.016216951992037227,0.8956152478468071,0.008551181,-0.040448705,-0.920934004,-0.021077195,0.01548913,2.535312652398009E-4,Home
3,-52.75414097,12.421673698425293,19.702877674102783,-114.3148518,56.04179702758789,-8.616249886,-1.69E-04,0.001838472,-5.93E-04,9.883312873469974,0.40286537715532245,-0.074482413,-150.625,0.003334999,0.003772666,0.010259340037998645,90.15825653076172,1.2676355838775635,1.0289479494094849,9.173000336,0.2938733994960785,180.99783325195312,160.1999969482422,-86.9155051,40.3848835,9.883312873469974,0.40286537715532245,-0.074482413,0.4447329492823591,0.012816349478456581,0.016172074541015533,0.895425486,0.008574756,-0.040372449,-0.92179054,-0.021243251,0.015429823984871211,1.7050348247121117E-4,Home
4,-52.67813499,12.434971723556519,19.655053596496582,-114.2384799,56.05570495605469,-8.664683838,-2.05E-04,0.00224175,-8.42E-04,9.924745948569289,0.40686116027600555,-0.074761188,-147.7777778,0.021146589112513273,0.006562285,0.011815898879928496,45,0.10000000149011612,1.0390169620513916,8.046999931,0.3008135259151459,181.2782745361328,160.1999969482422,-86.9155109,40.3848782,9.924745948569289,0.40686116027600555,-0.074761188,0.4446878942471106,0.012889436165829308,0.016138433,0.8954474260506121,0.008737728,-0.040376758,-0.921686998,-0.021278834,0.015833101868267776,-7.86E-05,Home
5,-52.73535297,12.440583753585816,19.742283630371094,-114.295332,56.06156070709228,-8.576843805,-2.28E-04,0.002194306,-7.83E-04,9.946261155952527,0.4092307516093393,-0.074459181,-140.625,0.011540672,0.005996084,0.013050820208290249,45,0.26627054810523987,1.049046277999878,7.379000186920166,0.9451764822006226,156.39903259277344,160.1999969482422,-86.9155015,40.384865,9.946261155952527,0.4092307516093393,-0.074459181,0.4446359218902958,0.012958205078990714,0.016200096463983498,0.895471125,0.008808462,-0.040547913,-0.921570604,-0.021302556,0.015785657,-1.93E-05,Home
6,-52.71449097,12.45888376235962,19.726057567596435,-114.2752019,56.079860877990725,-8.593191833,-3.41E-04,0.002090977,-7.40E-04,9.917262595834083,0.4058389843088909,-0.073948093,-124.6666667,-0.015182935,0.003380013,0.012674515099766163,45,0.23021729290485382,1.0589056015014648,5.822000026702881,1.5859670639038086,25.047061920166016,160.1999969482422,-86.9154913,40.3848923,9.917262595834083,0.4058389843088909,-0.073948093,0.4448675733919327,0.012904773,0.016192399466840122,0.8953569720570858,0.008709063,-0.040488846,-0.922089485,-0.021414895,0.015682328877469096,2.3494123105103008E-5,Home
7,-52.73071686,12.46473973274231,19.65639565,-114.2908181,56.085473136901854,-8.663219852,-1.33E-04,0.002182445,-7.59E-04,9.888981300650292,0.4029815341662435,-0.074017787,-125.5555556,-0.013290155,0.002922748,0.012416765491649943,45,0.092195444,1.0689140558242798,5.701000213623047,1.2241759300231934,150.82789611816406,160.1999969482422,-86.9154848,40.3848675,9.888981300650292,0.4029815341662435,-0.074017787,0.4448909455711402,0.012884763593884926,0.016134167,0.8953466988304286,0.008723993,-0.040366938,-0.922140732,-0.021207667,0.015773796295584404,4.447915238662831E-6,Home
8,-52.72803299,12.433141775131226,19.76558568954468,-114.288134,56.05338699,-8.55378583,-5.04E-05,0.002146861,-7.35E-04,9.885171261,0.40328353961694585,-0.0742501,-136.5,-0.003244641,0.004935688,0.012400795389147639,45,0.092195444,1.0789706707000732,5.256000042,0.7300031185150146,75.36166381835938,160.1999969482422,-86.9154755,40.3848767,9.885171261,0.40328353961694585,-0.0742501,0.44499182382833613,0.012875992,0.016073133,0.8952977911939899,0.008758075,-0.040250769,-0.922364803,-0.02112464,0.015738213000801003,2.8170137191462576E-5,Home
9,-52.71534504,12.418257761001588,19.714345664978026,-114.2756895,56.03752712249756,-8.60587986,-7.41E-05,0.001968945,-5.93E-04,9.890723682144314,0.4027492204337444,-0.074784419,-147.6666667,0.0020339,0.004023579,0.011816020874143804,45,0.092195444,1.088918924331665,5.144000053405762,1.0569134950637817,42.77891540527344,160.1999969482422,-86.915467,40.3848871,9.890723682144314,0.4027492204337444,-0.074784419,0.44505059082531234,0.012882899,0.016090024949856174,0.8952681746297669,0.008752763,-0.040287753,-0.922496389,-0.021148362,0.015560296264666956,1.705034813409653E-4,Home
10,-52.72986301,12.407277746200561,19.74630970001221,-114.2897198,56.025693016052244,-8.572817822,-2.97E-06,0.001885917,-6.64E-04,9.896067082303242,0.4034926225838152,-0.072902685,-146.875,0.002574532,0.004415805,0.012109398227004171,45,0.092195444,1.0989285707473755,4.925000190734863,0.8768180012702942,95.93225098,160.1999969482422,-86.9154555,40.3848812,9.896067082303242,0.4034926225838152,-0.072902685,0.44524932515273974,0.012816251915635414,0.016131009454432042,0.8951695735014759,0.008587876,-0.040303742,-0.92294344,-0.021077195,0.015477268504503282,9.93368109615827E-5,Home
11,-52.70912304,12.490115728378296,19.698485641479493,-114.2687356,56.1088969,-8.622349806,-2.76E-04,0.002218028,-7.47E-04,9.913004132417532,0.40457109075326186,-0.072336869,-144.1111111,0.010873758,0.005007958,0.012092350358233868,45,0.092195444,1.1089781522750854,4.640999794006348,0.9760093092918396,126.25202178955078,160.1999969482422,-86.9154469,40.3848734,9.913004132417532,0.40457109075326186,-0.072336869,0.4453201930499771,0.012789785626877858,0.016144966688549634,0.8951344501624987,0.008524824,-0.04030584,-0.923102924,-0.021350001,0.01580938,1.630902875811585E-5,Home
12,-52.73474281,12.436435794830322,19.693605575561524,-114.2948439,56.05753494262695,-8.62576581,-2.16E-04,0.002265472,-7.47E-04,9.949528046024655,0.4089984393235549,-0.074296562,-143.75,0.017269967829139487,0.00657796,0.012064133635134373,45,0.092195444,1.1190909147262573,4.4720001220703125,1.0597833395004272,187.47335815429688,160.1999969482422,-86.9154561,40.3848609,9.949528046024655,0.4089984393235549,-0.074296562,0.44505267120102077,0.012895465,0.016195780896012067,0.8952650526194896,0.008680997,-0.040488414,-0.922503478,-0.021290695,0.015856824,1.630902819299293E-5,Home
13,-52.71534504,12.457785682678223,19.714467754364012,-114.2754455,56.07839687347412,-8.605269842,-3.47E-04,0.002526417,-7.83E-04,9.951743727748834,0.40978830300488517,-0.073437005,-147.5555556,0.002531635,0.005625597,0.014510783610992062,45,0.092195444,1.1290251016616821,4.414000034332275,0.45852404832839966,195.82504272460938,160.1999969482422,-86.9154575,40.3848606,9.951743727748834,0.40978830300488517,-0.073437005,0.4448596103098786,0.012987663435921507,0.016215492,0.8953593072381992,0.008837417,-0.04060391,-0.922070028,-0.021421167,0.016117768579171698,-1.93E-05,Home
14,-52.74706478,12.448391733169556,19.718981666564943,-114.3072878,56.068270950317384,-8.600755844,-9.79E-05,0.002360361,-6.76E-04,9.944286513097078,0.4089055139462925,-0.07352993,-147.875,-0.00297289,0.004009116,0.014002950012105183,45,0.10000000149011612,1.1389435529708862,4.386000156402588,0.2592136859893799,204.30746459960938,160.1999969482422,-86.9154586,40.3848597,9.944286513097078,0.4089055139462925,-0.07352993,0.44482620248516785,0.012979134510370713,0.016247833455071865,0.8953754514166452,0.008794853,-0.040653937,-0.92199646,-0.021172084,0.015951713,8.747569857237554E-5,Home
15,-52.74779694,12.442779703140259,19.643097629547118,-114.3074093,56.06314701080322,-8.678103809,-2.82E-04,0.002196701,-7.64E-04,9.941507450585226,0.40834796312943245,-0.072949148,-138,-0.001501166,0.004562199,0.013171665728665315,45,0.092195444,1.1489580869674683,4.385000228881836,0.24365673959255219,238.45608520507812,160.1999969482422,-86.9154619,40.3848592,9.941507450585226,0.40834796312943245,-0.072949148,0.4449671541269009,0.012905507,0.016244064,0.8953065459544842,0.008659859,-0.040583024,-0.922313356,-0.021356159,0.015788052428083923,-1.68E-12,Home
16,-52.718517,12.44753776550293,19.707269611358644,-114.2780077,56.06583092,-8.613565826,-5.01E-04,0.002562,-7.35E-04,9.943572155480245,0.40927721516599935,-0.07280976,-131.1111111,7.023394686504475E-4,0.005238275,0.014373781,45,0.092195444,1.1081798076629639,4.334000110626221,0.20641851425170898,281.0018005371094,160.1999969482422,-86.9154642,40.3848605,9.943572155480245,0.40927721516599935,-0.07280976,0.4448591864224776,0.012954310785291844,0.016231246202171427,0.8953597250493984,0.008763634,-0.04060245,-0.922070411,-0.021575362,0.016153351892039036,2.8170137756585496E-5,Home
17,-52.70180286,12.42801775932312,19.661641693115236,-114.2619037,56.049604988098146,-8.658339844,-2.99E-04,0.002360361,-7.24E-04,9.941446498759742,0.4088358213600603,-0.074528875,-138.875,-9.79E-04,0.004305458,0.013523513396966804,0,0.092195444,1.1182726621627808,4.343999862670898,0.097952105,0,160.1999969482422,-86.9154645,40.3848605,9.941446498759742,0.4088358213600603,-0.074528875,0.4447766143141441,0.013003456388211366,0.016235732590978585,0.895399953,0.00885147,-0.040653412,-0.921884661,-0.021373723,0.015951713,4.0031250710915594E-5,Home
18,-52.69106705,12.43192177772522,19.704951686859133,-114.2511675,56.05106918334961,-8.616005821,-2.76E-04,0.002384083,-7.12E-04,9.938156359404037,0.40990446146252085,-0.073971325,-143.8888889,-0.001649458,0.005187854,0.013823514026634901,0,0.17000000178813934,1.1282018423080444,4.367000102996826,0.040465664118528366,0,160.1999969482422,-86.9154646,40.3848604,9.938156359404037,0.40990446146252085,-0.073971325,0.4447808951428793,0.012999507,0.016254093570327297,0.895397546,0.008827852,-0.040682836,-0.921894823,-0.021350001,0.015975435219198756,5.189236253499985E-5,Home
19,-52.72242092,12.429603767395019,19.655541610717773,-114.2828877,56.049849090576174,-8.664927912,-3.59E-04,0.002550139,-8.66E-04,9.937378195615915,0.4097248653952892,-0.074890747,-116.375,-6.56E-04,0.004420986,0.013596043026852377,0,0.1166190356016159,1.1382733583450317,4.354000091552734,0.04102267,0,160.1999969482422,-86.9154648,40.3848609,9.937378195615915,0.4097248653952892,-0.074890747,0.44468159525139817,0.013045703142302708,0.016268378449151816,0.8954459365131786,0.008902456,-0.040748551,-0.921672047,-0.021433028,0.016141490802819868,-1.02E-04,Home
20,-52.70887894,12.408375730514527,19.69836362838745,-114.2689796,56.02715694,-8.621373787,-3.59E-04,0.0023485,-7.35E-04,9.937351902711738,0.4083711970778345,-0.074087481,-128.4444444,-4.76E-04,0.004375753,0.014748188838796708,0,0.1166190356016159,1.1482226848602295,4.373000144958496,0.018842170014977455,0,160.1999969482422,-86.9154648,40.3848609,9.937351902711738,0.4083711970778345,-0.074087481,0.4447717151595551,0.0130336,0.016201035,0.8954025750021333,0.008936603,-0.040618016,-0.921871984,-0.021433028,0.015939851897289452,2.8170140017077183E-5,Home
21,-52.69338512,12.397517719268798,19.803283615112306,-114.2536073,56.01837291717529,-8.518283834,-2.40E-04,0.002170583,-8.18E-04,9.910168287,0.40628037637877235,-0.07334408,-138.125,-0.015997489,0.003657629,0.013773278016777872,0,0.086023256,1.1582928895950317,4.364999771118164,0.018283627927303314,0,160.1999969482422,-86.9154651,40.3848608,9.910168287,0.40628037637877235,-0.07334408,0.44499647356931443,0.012940138876799819,0.016200277,0.8952922554849421,0.008759598,-0.040535687,-0.922376781,-0.021314417,0.015761935152113438,-5.49E-05,Home
22,-52.73974491,12.446317749023438,19.67835563659668,-114.2996019,56.06680679321289,-8.641381817,-1.57E-04,0.002253611,-7.35E-04,9.883545070018583,0.40263306197610876,-0.074041019,-128.8888889,-0.012500272,0.003243388,0.012833250993953167,45,0.086023256,1.168190836906433,4.369999885559082,0.12021753191947937,163.1176300048828,160.1999969482422,-86.9154643,40.3848591,9.883545070018583,0.40263306197610876,-0.074041019,0.4451907748736224,0.012901423598449785,0.016101824,0.8951979979728032,0.008769134,-0.040326761,-0.922809501,-0.02123139,0.015844962948444976,2.8170138321708416E-5,Home
23,-52.70546307,12.420453748703004,19.633215713500977,-114.2651981,56.04118694,-8.686643839,-3.47E-04,0.0023485,-6.88E-04,9.882731937667698,0.40207551202727754,-0.073622855,-123.625,-0.001852637,0.003889119,0.013312295,0,0.17000000178813934,1.1782493591308594,4.363999843597412,0.092646815,0,160.1999969482422,-86.915464,40.3848585,9.882731937667698,0.40207551202727754,-0.073622855,0.4452156901938244,0.012897571340854307,0.016061103,0.8951863941637058,0.00879739,-0.040250631,-0.922864222,-0.021421167,0.015939851906331418,7.561458618316836E-5,Home
24,-52.71388088,12.419233713150025,19.66103157043457,-114.2736159,56.03923492,-8.658583899,-4.11E-04,0.002290677,-7.99E-04,9.890352073225003,0.40186643079646583,-0.074668263,-131,0.003022176,0.004140028,0.012724783701392321,0,0.086023256,1.188177466392517,4.331999778747559,0.091185682,0,160.1999969482422,-86.9154637,40.3848577,9.890352073225003,0.40186643079646583,-0.074668263,0.4452177664408317,0.012901914879106559,0.016024268,0.8951859606000093,0.008837901,-0.040188539,-0.922867793,-0.021485377,0.015882029,-3.52E-05,Home
25,-52.79232708,12.440583696365357,19.699827575683592,-114.3518176,56.06009689331054,-8.620519829,-4.89E-04,0.002253611,-8.18E-04,9.895950937734067,0.40207551202727754,-0.074505644,-134.25,0.003130181,0.005242024,0.013229693928100531,0,0.086023256,1.1982110738754272,4.315999984741211,0.037884664,0,160.1999969482422,-86.9154639,40.3848577,9.895950937734067,0.40207551202727754,-0.074505644,0.4452910620032005,0.012890633041925222,0.015968834420720352,0.8951506545242754,0.008863796,-0.040079922,-0.923030484,-0.021563501,0.015844963,-5.49E-05,Home
26,-52.72754501,12.433507719039916,19.737037677764892,-114.2875239,56.05216690063477,-8.582699823,-4.66E-04,0.002360361,-8.66E-04,9.911353148302986,0.4045147991296157,-0.07280976,-135.4444444,0.010696624089213251,0.006793615,0.014164736331666558,0,0.086023256,1.2083512544631958,4.236999988555908,0.016108574345707893,0,160.1999969482422,-86.9154642,40.3848579,9.911353148302986,0.4045147991296157,-0.07280976,0.44530857766716225,0.012866281479307748,0.016013181958239055,0.8951414997137866,0.008779856,-0.040137835,-0.923071439,-0.021539778,0.015951713,-1.02E-04,Home
27,-52.69899689,12.426309757232666,19.678111686706544,-114.259464,56.04606689453125,-8.640405807,-3.83E-04,0.002716195,-9.01E-04,9.951781541398429,0.409486297,-0.073204692,-149.8888889,0.018490115415702744,0.007784976,0.014800514447168239,0,0.086023256,1.2182438373565674,4.164000034332275,0.024905364960432053,0,160.1999969482422,-86.9154643,40.3848582,9.951781541398429,0.409486297,-0.073204692,0.4450723083273878,0.012955513077525838,0.016120383660625487,0.8952557814931407,0.008854878,-0.040407003,-0.922543746,-0.021456751,0.016307546350273115,-1.38E-04,Home
28,-52.677159,12.421917762756348,19.744967670440673,-114.2370159,56.04106510162354,-8.575501842,-4.18E-04,0.002597583,-6.52E-04,9.955698298,0.4099089274039635,-0.074361565,-132.5,0.003591334,0.005402721,0.015215038783052593,0,0.12206555902957916,1.2282440662384033,4.125999927520752,0.022616334,0,160.1999969482422,-86.9154645,40.3848583,9.955698298,0.4099089274039635,-0.074361565,0.4448390640680072,0.013061923906207085,0.016184529,0.8953690054347214,0.008999007,-0.040614324,-0.922021265,-0.021492334,0.016188935,1.1119792222054404E-4,Home
29,-52.70900085,12.418135709762574,19.711905612945557,-114.2692239,56.03825912475586,-8.608319826,-4.42E-04,0.002253611,-6.29E-04,9.951122293194521,0.4101367725909335,-0.07334408,-133.7777778,-0.001523999,0.004481544,0.014211559577763658,0,0.086023256,1.2382670640945435,4.050000190734863,0.067233212,0,160.1999969482422,-86.9154651,40.3848591,9.951122293194521,0.4101367725909335,-0.07334408,0.4448899658559595,0.012993478641203307,0.016281346871870234,0.8953429512607242,0.008787824,-0.040727372,-0.922139436,-0.021516056,0.015844963002696777,1.3492014360822087E-4,Home
30,-52.73169289,12.445829706192017,19.730815620422362,-114.291916,56.066318855285644,-8.588311806,-4.77E-04,0.0023485,-6.05E-04,9.947692787762984,0.4082782702538574,-0.075086426,-138.5,-0.001559795,0.0029231,0.012933801534106431,0,0.086023256,1.2482295036315918,4.007999897003174,0.042744447,0,160.1999969482422,-86.9154653,40.3848592,9.947692787762984,0.4082782702538574,-0.075086426,0.44489615403332755,0.013006983677522071,0.016257581870677402,0.8953401099130945,0.008832907,-0.040696878,-0.922152269,-0.021551639,0.015939851897289452,1.5864237008200399E-4,Home
31,-52.74962708,12.444121675491333,19.70617162704468,-114.3091178,56.06436695098877,-8.614419842,-3.47E-04,0.00245525,-8.78E-04,9.944225570530568,0.408789359,-0.07406425,-135.4444444,-0.002100593,0.004794592,0.014396732582629305,45,0.086023256,1.108062982559204,3.924999952316284,0.1088639497756958,290.6442565917969,160.1999969482422,-86.9154671,40.3848596,9.944225570530568,0.408789359,-0.07406425,0.4449509775754317,0.013010099792437068,0.016192698471465157,0.895314002,0.008893777,-0.040583952,-0.922272992,-0.021421167,0.016046601872059328,-1.14E-04,Home
32,-52.72181084,12.466447744369507,19.675061683654786,-114.2816679,56.08522907,-8.643943825,-2.88E-04,0.002407806,-8.78E-04,9.942663248302868,0.41025292989119744,-0.073971324,-138.375,-8.32E-04,0.005994433,0.013709174378693682,0,0.086023256,1.118171215057373,3.9000000953674316,0.058215875178575516,0,160.1999969482422,-86.9154674,40.3848597,9.942663248302868,0.41025292989119744,-0.073971324,0.4449434838827374,0.012988463026082631,0.016229706843501154,0.8953173675583405,0.008822385,-0.040630919,-0.922257808,-0.021361862,0.015999157442846922,-1.14E-04,Home
33,-52.66105499,12.416671686172485,19.677501678466797,-114.2212777,56.03691685,-8.642723827,-4.82E-04,0.002408148,-7.87E-04,9.941437795324234,0.40786010692420516,-0.073065304,-124.2222222,-8.71E-04,0.003923281,0.014600835668926056,0,0.086023256,1.1281040906906128,3.9000000953674316,0.020476793870329857,0,160.1999969482422,-86.9154673,40.3848596,9.941437795324234,0.40786010692420516,-0.073065304,0.44497620257047504,0.012975926000553254,0.016215429712946598,0.8953015454686605,0.008811147,-0.040594501,-0.922330898,-0.021555859,0.0159995,-2.35E-05,Home
34,-52.74499084,12.463763723373413,19.70068162918091,-114.30558,56.08437522888184,-8.618323822,-3.94E-04,0.0023485,-6.52E-04,9.938998453825423,0.4083944266860925,-0.073878399,-145.5,-0.001222231,0.004776764,0.01327077,0,0.086023256,1.1381196975708008,3.9000000953674316,0.013094853609800339,0,160.1999969482422,-86.9154674,40.3848597,9.938998453825423,0.4083944266860925,-0.073878399,0.44502347302668305,0.012949742,0.016214918706891606,0.8952784376236999,0.008762535,-0.040570739,-0.922437235,-0.021468612,0.015939851888247484,1.1119792052517528E-4,Home
35,-52.6805751,12.423503713607788,19.704707641601562,-114.2404317,56.04216289520264,-8.615151854,-3.23E-04,0.002550139,-6.64E-04,9.937836841472144,0.4077439487559124,-0.073553161,-131.8888889,-9.52E-04,0.004090781,0.014709811476827825,0,0.086023256,1.148101806640625,3.878000020980835,0.00970597,0,160.1999969482422,-86.9154675,40.3848597,9.937836841472144,0.4077439487559124,-0.073553161,0.44493663513544696,0.013000948,0.016195156367369068,0.8953212163980725,0.008875836,-0.040580067,-0.92224125,-0.021397445,0.016141490748568067,9.933681039645979E-5,Home
36,-52.68826092,12.439485683441163,19.71373567581177,-114.2482397,56.059243049621585,-8.606733761,-4.54E-04,0.002360361,-7.59E-04,9.913583311062414,0.40484003679266256,-0.073553161,-134.5,-0.014861116,0.002756638,0.014217151057662315,0,0.086023256,1.1580350399017334,3.881000042,0.004043924,0,160.1999969482422,-86.9154675,40.3848597,9.913583311062414,0.40484003679266256,-0.073553161,0.44507146257798647,0.012959536707517013,0.016150317977643706,0.8952556090447509,0.008835459,-0.040464207,-0.922542529,-0.021527917,0.015951713,4.447914108416988E-6,Home
37,-52.72925316,12.410937776565552,19.69250762939453,-114.2888658,56.028986892700196,-8.627351875,-4.66E-04,0.002431528,-9.01E-04,9.883760874087994,0.4019711963259257,-0.073901407,-144.6666667,-0.013989939,0.003342368,0.013893107332072212,0,0.09433981,1.1680208444595337,3.881000042,0.010937784798443317,0,160.1999969482422,-86.9154677,40.3848597,9.883760874087994,0.4019711963259257,-0.073901407,0.44521503772550414,0.012929152118638881,0.016043155933323415,0.895186583,0.008870004,-0.040246608,-0.922861447,-0.021539778,0.016022879630327225,-1.38E-04,Home
38,-52.71400311,12.433385725021362,19.69580171585083,-114.2738593,56.054118957519535,-8.624911852,-4.77E-04,0.002407806,-7.12E-04,9.883498617746298,0.4014482671774707,-0.073785474,-133.8888889,-0.001998633,0.004674697,0.013956288870387865,0,0.086023256,1.1780714988708496,3.881000042,0.008045068,0,160.1999969482422,-86.9154677,40.3848596,9.883498617746298,0.4014482671774707,-0.073785474,0.4453557015044018,0.012895615111349278,0.015978021402526826,0.8951182596891829,0.008861636,-0.040101455,-0.923175058,-0.021551639,0.015999157460930856,5.1892364230368614E-5,Home
39,-52.71192883,12.401909770965576,19.748383693695068,-114.2722735,56.020812797546384,-8.573061838,-4.42E-04,0.002443389,-7.35E-04,9.890142903744596,0.40212197529459465,-0.074459181,-132.875,0.003105451,0.004975483,0.013758470132512954,0,0.086023256,1.1880561113357544,3.862999916,0.007360578,0,160.1999969482422,-86.9154678,40.3848596,9.890142903744596,0.40212197529459465,-0.074459181,0.4452971920226384,0.012927194333915572,0.015981434817308363,0.8951468531367848,0.008917799,-0.040135123,-0.923043519,-0.021516056,0.016034740791882125,2.817013945195426E-5,Home
40,-52.69631287,12.441193714141846,19.673597583770754,-114.2567797,56.060096740722656,-8.646505842,-4.54E-04,0.002229889,-8.66E-04,9.894789371675659,0.403004766,-0.074575338,-130.7777778,0.002510034,0.005783123,0.013498749,0,0.086023256,1.198015809059143,3.862999916,0.009345219,0,160.1999969482422,-86.9154679,40.3848597,9.894789371675659,0.403004766,-0.074575338,0.44533148407936096,0.012919852510094643,0.015975983,0.8951299983320884,0.008907967,-0.040119159,-0.923120223,-0.021527917,0.015821240788090576,-1.02E-04,Home
41,-52.78415287,12.420209760665893,19.737891635894776,-114.344376,56.040333099365235,-8.581723814,-4.46E-04,0.002267183,-6.81E-04,9.898668993,0.40223813172682976,-0.074459182,-144.25,0.002577241,0.004367454,0.013380371392346345,0,0.086023256,1.2081061601638794,3.937999963760376,0.00877344,0,160.1999969482422,-86.915468,40.3848597,9.898668993,0.40223813172682976,-0.074459182,0.4453253771823186,0.012912404535409924,0.016008162459072012,0.8951325663007222,0.008866216,-0.0401701,-0.92310761,-0.021520618,0.015858534795160476,8.222943758412909E-5,Home
42,-52.72095684,12.467545747756958,19.684577655792236,-114.2808138,56.08791290283203,-8.63564785,-4.89E-04,0.002526417,-8.07E-04,9.937929690462871,0.4061409888915645,-0.072577447,-137.7777778,0.020860098,0.006633219,0.014670106609469479,0,0.086023256,1.2180956602096558,3.9200000762939453,0.011068434,0,160.1999969482422,-86.9154681,40.3848598,9.937929690462871,0.4061409888915645,-0.072577447,0.4453077084809831,0.012897463,0.016061264659883907,0.8951406218473194,0.008792913,-0.040251728,-0.923069897,-0.021563501,0.016117769,-4.30E-05,Home
43,-52.69924084,12.436923742294312,19.62992172241211,-114.259708,56.05790111541748,-8.690181828,-5.84E-04,0.002609445,-7.95E-04,9.956384242159649,0.40918428949939395,-0.071834045,-151.5,0.00980929,0.006059358,0.015084049836235139,0,0.086023256,1.2281322479248047,3.9200000762939453,0.005060377,0,160.1999969482422,-86.9154681,40.3848598,9.956384242159649,0.40918428949939395,-0.071834045,0.44511976259426006,0.012922081427232734,0.016186624638808583,0.8952314801586484,0.008733809,-0.040496368,-0.922652442,-0.021658389,0.016200796339335372,-3.11E-05,Home
44,-52.74499104,12.411425724029542,19.660665683746338,-114.305214,56.03179286956787,-8.658095856,-3.47E-04,0.002431528,-8.07E-04,9.954514114602098,0.40897520913661106,-0.074133943,-137.4444444,2.890373896626593E-4,0.005658908,0.013862773631382915,0,0.086023256,1.2380812168121338,3.937999963760376,0.006259336,0,160.1999969482422,-86.9154682,40.3848598,9.954514114602098,0.40897520913661106,-0.074133943,0.44506069525931646,0.012963880260375519,0.016159490872065998,0.8952607344655157,0.008835554,-0.0404844,-0.922518581,-0.021421167,0.01602288,-4.30E-05,Home
45,-52.70473106,12.436313695907593,19.743747749328612,-114.2644658,56.05668064117432,-8.575379829,-3.11E-04,0.0023485,-6.52E-04,9.951180383997055,0.4079297997997802,-0.07497027,-132.625,-0.001566155,0.004073441,0.013400711372350027,0,0.086023256,1.2481439113616943,3.937999963760376,0.009574129,0,160.1999969482422,-86.9154683,40.3848597,9.951180383997055,0.4079297997997802,-0.07497027,0.4449801323483291,0.012993160391099823,0.016178810444561022,0.8953000092969358,0.008874465,-0.040544281,-0.92233824,-0.021385584,0.015939852,1.1119792165542112E-4,Home
46,-52.6594685,12.420819730758668,19.64883171081543,-114.2200582,56.04094295501709,-8.670539875,-2.99E-04,0.002550139,-7.95E-04,9.947291778,0.408022278,-0.074614652,-146.5555556,-0.00198005,0.004358139,0.014520756719471182,0,0.086023256,1.1074384450912476,3.878000020980835,0.054434296,0,160.1999969482422,-86.9154691,40.3848602,9.947291778,0.408022278,-0.074614652,0.44494670224421234,0.013023605,0.016154059000964303,0.8953166320485976,0.008952581,-0.040526709,-0.922262056,-0.021373723,0.016141490784735934,-3.11E-05,Home
47,-52.75889885,12.411913738250732,19.637729568481447,-114.318878,56.03167072296142,-8.682617884,-3.23E-04,0.002526417,-7.95E-04,9.942756143588465,0.40823180756522615,-0.073646086,-126.875,-0.002825413,0.00500814,0.015272974787117208,0,0.086023256,1.1173611879348755,3.881000042,0.026956271,0,160.1999969482422,-86.9154692,40.3848602,9.942756143588465,0.40823180756522615,-0.073646086,0.4449464418355701,0.013022285497304305,0.016157055309819944,0.8953167246383371,0.00894756,-0.040530899,-0.922261591,-0.021397445,0.016117769,-3.11E-05,Home
48,-52.72461708,12.415207738876342,19.69116569519043,-114.2838638,56.03520893096924,-8.628937883,-4.77E-04,0.002704333,-8.54E-04,9.942015657147158,0.408162115,-0.07390163,-131.7777778,-5.66E-04,0.005125834,0.015228681085468496,0,0.086023256,1.1273753643035889,3.9000000953674316,0.018745663,0,160.1999969482422,-86.9154694,40.3848602,9.942015657147158,0.408162115,-0.07390163,0.44497850797708755,0.013013167297738848,0.016139175580109206,0.8953012366896694,0.008945688,-0.040491066,-0.922333033,-0.021551639,0.016295685215844114,-9.04E-05,Home
49,-52.67776894,12.453881702423097,19.668839702606203,-114.2372601,56.07351688,-8.650775881,-3.47E-04,0.00245525,-8.66E-04,9.941286772200204,0.40823180843325496,-0.074041018,-131.875,-4.17E-04,0.005211255,0.014544300228646658,0,0.086023256,1.1373721361160278,3.9000000953674316,0.007712991,0,160.1999969482422,-86.9154694,40.3848602,9.941286772200204,0.40823180843325496,-0.074041018,0.444987344,0.013001011232438596,0.016153977894522612,0.8952967553462797,0.008910322,-0.040506855,-0.922353493,-0.021421167,0.016046601890143262,-1.02E-04,Home
50,-52.65800495,12.418013772964478,19.717517585754393,-114.2181059,56.03801513671875,-8.602829828,-3.99E-04,0.002513871,-7.87E-04,9.939619925,0.40864997002684955,-0.074319794,-131.8888889,-9.65E-04,0.005284221,0.014504253577727538,0,0.086023256,1.1473667621612549,3.9000000953674316,0.00741713,0,160.1999969482422,-86.9154695,40.3848602,9.939619925,0.40864997002684955,-0.074319794,0.44494724904115385,0.013017280913817767,0.016166372,0.8953162236855581,0.008930259,-0.040543143,-0.922263775,-0.02147363,0.016105223,-2.35E-05,Home
51,-52.71607681,12.438387718200683,19.671279678344728,-114.2764215,56.05887691497803,-8.648945837,-3.94E-04,0.002324778,-7.47E-04,9.92067762,0.406814699,-0.073692549,-131,-0.012610241,0.003748366,0.014114811654808452,0,0.086023256,1.1573060750961304,3.9000000953674316,0.010302380658686161,0,160.1999969482422,-86.9154696,40.3848603,9.92067762,0.406814699,-0.073692549,0.4450039140229086,0.012975686419646717,0.016186897905127517,0.8952882914867216,0.008834873,-0.040543447,-0.922392085,-0.021468612,0.015916129646515384,1.6309025932501242E-5,Home
52,-52.70338917,12.402153663635254,19.62113763809204,-114.263124,56.021300888061525,-8.697501869,-3.71E-04,0.0023485,-6.17E-04,9.887122793105043,0.4011694922030551,-0.075225814,-121.5,-0.015233253,0.001640496,0.013056068527467043,0,0.086023256,1.1673086881637573,3.9000000953674316,0.008898054,0,160.1999969482422,-86.9154697,40.3848603,9.887122793105043,0.4011694922030551,-0.075225814,0.4451379197315105,0.012960681935898888,0.016064974994769374,0.8952240833958376,0.008910531,-0.040313007,-0.922688791,-0.021444889,0.015939851897289452,1.467812576927968E-4,Home
53,-52.73840298,12.39422372817993,19.730449619293214,-114.2977721,56.013492851257325,-8.589043846,-2.64E-04,0.002265472,-7.00E-04,9.884520771434007,0.40054224590653353,-0.07569044,-115.4444444,-0.002943335,0.004055682,0.013224258838058675,0,0.086023256,1.1773229837417603,3.9000000953674316,0.011237517,0,160.1999969482422,-86.9154698,40.3848604,9.884520771434007,0.40054224590653353,-0.07569044,0.44528351102060487,0.012943046972227907,0.015935297693731715,0.8951542510569674,0.008987933,-0.040066469,-0.923011324,-0.02133814,0.015856824,6.375347322883826E-5,Home
54,-52.69497105,12.426919708251953,19.723861694335938,-114.2545836,56.04606693267822,-8.59636384,-3.47E-04,0.0023485,-8.54E-04,9.891330682,0.3997854427076303,-0.07463766,-118.5,0.002577485,0.004127865,0.013777315,0,0.086023256,1.1873064041137695,3.9000000953674316,0.00915357,0,160.1999969482422,-86.9154699,40.3848604,9.891330682,0.3997854427076303,-0.07463766,0.44539386554829125,0.012895427924553745,0.015907019557594097,0.8951005385917368,0.008922882,-0.039974497,-0.923258547,-0.021421167,0.015939851906331418,-9.04E-05,Home
55,-52.72156708,12.367139730453491,19.700437660217286,-114.281424,55.98775085449219,-8.618811846,-4.42E-04,0.002360361,-8.18E-04,9.896322639243117,0.40051901600893264,-0.074459181,-117,0.002476183,0.005072477,0.014199734493656066,0,0.086023256,1.1973605155944824,3.9000000953674316,0.0085327,0,160.1999969482422,-86.91547,40.3848604,9.896322639243117,0.40051901600893264,-0.074459181,0.44540172178768417,0.012904504603407915,0.015879539664364554,0.8950969871965427,0.008963285,-0.039933445,-0.923275155,-0.021516056,0.015951712995550586,-5.49E-05,Home
56,-52.70155907,12.434849739074707,19.771441593170167,-114.2615374,56.05533897399902,-8.549149828,-4.30E-04,0.0023485,-7.12E-04,9.907752324076531,0.4019593555950424,-0.073274385,-116.5,0.007804722,0.005612781,0.013427188529551607,0,0.086023256,1.207486629486084,3.9549999237060547,0.008084581,0,160.1999969482422,-86.91547,40.3848605,9.907752324076531,0.4019593555950424,-0.073274385,0.4454776555010416,0.012827903656198562,0.015949591542187246,0.8950590554950306,0.008760207,-0.039991396,-0.923448755,-0.021504195,0.015939851888247484,5.189236310012277E-5,Home
57,-52.73401104,12.444609689712525,19.779615573883056,-114.2938676,56.063634910583495,-8.540975828,-5.13E-04,0.002467111,-7.71E-04,9.948932777330713,0.4061409917849939,-0.073622855,-120.4444444,0.020025531065116807,0.007053845,0.014305131093969622,0,0.086023256,1.217376947402954,3.9549999237060547,0.011131453327834606,0,160.1999969482422,-86.9154702,40.3848605,9.948932777330713,0.4061409917849939,-0.073622855,0.4452854776845395,0.012904082244099344,0.016012677760089484,0.8951524577094513,0.008849074,-0.040170379,-0.923018773,-0.021587223,0.016058463015530294,-7.41E-06,Home
58,-52.71119678,12.43863169670105,19.673841686248778,-114.2709319,56.05814506530762,-8.646139822,-4.54E-04,0.002336639,-8.78E-04,9.957513864757946,0.4079065687448076,-0.073437005,-136.375,0.006057147,0.005997787,0.014250716935951733,0,0.086023256,1.227323055267334,3.9549999237060547,0.009955931,0,160.1999969482422,-86.9154703,40.3848605,9.957513864757946,0.4079065687448076,-0.073437005,0.4451580565531277,0.012927860283808223,0.016109133247756265,0.8952137544317152,0.008811468,-0.040363073,-0.922735849,-0.021527917,0.015927990771902416,-1.14E-04,Home
59,-52.76719494,12.387757711410522,19.730449619293214,-114.3272958,56.00861286,-8.589653845,-1.47E-04,0.002208448,-6.99E-04,9.952972144,0.4069773167082407,-0.074482413,-125.6666667,-0.00141838,0.005064107,0.013565956220890466,0,0.086023256,1.2373543977737427,3.937000036239624,0.011269828,0,160.1999969482422,-86.9154704,40.3848606,9.952972144,0.4069773167082407,-0.074482413,0.44516270579053807,0.012933879822062759,0.016091537,0.8952116719805278,0.008837721,-0.040336961,-0.922745609,-0.02127393,0.016081729088909924,-2.35E-05,Home
60,-52.7779311,12.40288579940796,19.70800167,-114.3375436,56.022276878356934,-8.612345867,1.1119792335078988E-4,4.7444447296337016E-5,4.447915238662831E-6,9.949490343482749,0.40913782767879153,-0.074923807,-131.7777778,-0.001766547,0.002764164,0.005416098,0,0.09433981,1.2473939657211304,3.937000036239624,0.009225961,0,160.1999969482422,-86.9154705,40.3848606,9.949490343482749,0.40913782767879153,-0.074923807,0.4452584605772518,0.012695326795349422,0.016469926,0.8951605691493136,0.00806876,-0.040803168,-0.922976287,-0.021421167,0.016082185203010597,4.447915238662831E-6,Home
61,-52.74413708,12.422039775848388,19.72422769546509,-114.3037494,56.043382720947264,-8.596241789,9.933680983133686E-5,-9.49E-05,-6.67E-05,9.946606691601207,0.40674500326508456,-0.075992446,-128.625,-0.001656273,-8.06E-04,7.451088755454832E-4,0,0.10816653817892075,1.1065797805786133,3.862999916,0.061095234006643295,0,160.1999969482422,-86.9154716,40.3848606,9.946606691601207,0.40674500326508456,-0.075992446,0.44537120420955917,0.012565494,0.016606636616645506,0.8951037989079373,0.007709145,-0.040933372,-0.923235612,-0.021433028,0.015939852,-6.67E-05,Home
62,-52.67776897,12.36860372543335,19.633947715759277,-114.2383575,55.988238945007325,-8.685911884,2.2980903989626366E-4,-4.74E-05,-1.26E-04,9.944399722571513,0.4067450044224563,-0.075179351,-148.7777778,-0.001224342,1.9873808888555731E-4,-8.93E-05,0,0.10816653817892075,1.1165144443511963,3.881000042,0.029914567,0,160.1999969482422,-86.9154717,40.3848606,9.944399722571513,0.4067450044224563,-0.075179351,0.4455381848858398,0.012475320942772245,0.016600426774725174,0.895022073,0.007545492,-0.040843314,-0.923611189,-0.021302556,0.015987296380753656,-1.26E-04,Home
63,-52.68801708,12.401299743652343,19.64590358734131,-114.2479961,56.02203293,-8.674077864,7.561458674829128E-5,-7.12E-05,5.189236083963108E-5,9.932632684707642,0.40668782,-0.074614653,-137.125,-0.006966424,4.0245576969628194E-5,3.0170829550733847E-4,0,0.1166190356016159,1.126570701599121,3.8889999389648438,0.011015236377716064,0,160.1999969482422,-86.9154717,40.3848606,9.932632684707642,0.40668782,-0.074614653,0.4455167532545849,0.012478310741411829,0.016618752870166186,0.8950323578223441,0.007535486,-0.04087862,-0.923563719,-0.021456751,0.015963574,5.189236083963108E-5,Home
64,-52.69338497,12.409595756530761,19.620893630981445,-114.25312,56.02825508117676,-8.699087877,4.447915803785753E-6,2.965277956021064E-4,-7.86E-05,9.933733486434788,0.4067914674004305,-0.075806596,-132.6666667,0.001460983,-2.42E-05,7.360571073096933E-4,0,0.1166190356016159,1.1365212202072144,5.15500021,0.008844301,0,160.1999969482422,-86.9154718,40.3848606,9.933733486434788,0.4067914674004305,-0.075806596,0.4454027674730542,0.012551132878921564,0.016599994369791548,0.895088422,0.007687889,-0.040908953,-0.923306382,-0.021527917,0.016331268510627515,-7.86E-05,Home
65,-52.75145683,12.425455703735352,19.734109630584715,-114.3118018,56.04570114135742,-8.586847782,9.933681039645979E-5,4.7444447296337016E-5,-1.73E-04,9.939933526863172,0.4076277940597349,-0.075899521,-127.5,0.00238776,0.001117813,9.299538016897961E-4,0,0.086023256,1.1465743780136108,6.375999927520752,0.004380561,0,160.1999969482422,-86.9154718,40.3848606,9.939933526863172,0.4076277940597349,-0.075899521,0.44539263526212824,0.012565872161784798,0.016581444268666423,0.8950935989907645,0.007731296,-0.040888774,-0.923282808,-0.021433028,0.016082185212052562,-1.73E-04,Home
66,-52.76329102,12.411425714492799,19.675549659729004,-114.3236353,56.03020698547363,-8.644797831,8.747569744212968E-5,7.353888969253568E-4,5.381979625807731E-4,9.922353105637633,0.40659399894834725,-0.07713078,-122.1111111,-0.011020679,-9.74E-04,9.033576160379984E-4,0,0.086023256,1.1564385890960693,6.974999904632568,0.005540176,0,160.1999969482422,-86.9154719,40.3848606,9.922353105637633,0.40659399894834725,-0.07713078,0.4455219099243868,0.012671015,0.016634682,0.8950267503562482,0.007866292,-0.041078928,-0.923570395,-0.02144489,0.016770129675244532,5.381979625807731E-4,Home
67,-52.48452103,12.828299779891967,19.652247676849367,-114.0451096,56.44732494354248,-8.669075851,1.2305903460975122E-4,-5.10E-04,0.00323067,9.889791442,0.42878859193579666,-0.078896357,-159.75,-0.015979109,-0.002223819,6.057650791209878E-4,0,0.086023256,1.166460394859314,7.985000133514404,0.008657658,0,160.1999969482422,-86.915472,40.3848607,9.889791442,0.42878859193579666,-0.078896357,0.44493626766991845,0.013228417,0.017630576418296805,0.8952905391026469,0.008005709,-0.043354296,-0.922274672,-0.021409306,0.015524713,0.00323067,Home
68,-52.23625092,13.21833375930786,19.461561641693116,-113.7967176,56.83821277618408,-8.858053837,2.3494125343859196E-5,-1.76E-04,-3.36E-12,9.883475377721695,0.43829309159112206,-0.075783365,-153.7777778,-0.002827709,-7.90E-04,-2.78E-04,0,0.086023256,1.1765295267105103,8.991000175476074,0.005392495,0,160.1999969482422,-86.915472,40.3848607,9.883475377721695,0.43829309159112206,-0.075783365,0.44439523122631586,0.013281278527126862,0.018179448894583262,0.8955478553588574,0.007637918,-0.044379971,-0.921080167,-0.021508871,0.015858534830980577,-3.36E-12,Home
69,-52.25333073,13.104507741928101,19.42813362121582,-113.8136755,56.724020919799806,-8.890993881,1.2305903460975122E-4,-1.78E-04,-1.62E-04,9.889399472949574,0.4391991122833733,-0.07515612,-129.25,0.002025799,8.047385123169538E-4,-1.23E-04,0,0.086023256,1.1865105628967285,9.987000465393066,0.005852334,0,160.1999969482422,-86.9154721,40.3848607,9.889399472949574,0.4391991122833733,-0.07515612,0.4440046771637444,0.013231575,0.018161425457417387,0.8957426605872738,0.007584171,-0.044300179,-0.920208562,-0.021409306,0.015856824037664145,-1.62E-04,Home
70,-52.28761299,13.115975761413575,19.433867664337157,-113.8472257,56.736464996337894,-8.886357775,4.003125240628436E-5,-8.30E-05,-7.41E-06,9.894487288391705,0.4385718677229094,-0.07497027,-138,0.002726555,6.798517356798486E-5,-2.18E-04,0,0.086023256,1.1964867115020752,9.956000328063965,0.006577083,0,160.1999969482422,-86.9154721,40.3848608,9.894487288391705,0.4385718677229094,-0.07497027,0.4435882504703929,0.013206981321417012,0.018170768015303658,0.8959491270259746,0.007552368,-0.04429157,-0.919279457,-0.021492334,0.015951712968424687,-7.41E-06,Home
71,-52.27394901,13.131469764709472,19.502919597625734,-113.8334399,56.751715087890624,-8.817671833,-6.67E-05,1.1861111824084254E-4,4.0031251276038514E-5,9.899365925094456,0.4391061880634826,-0.074598569,-150.7777778,0.003185161,-5.97E-05,4.5200242000876124E-4,0,0.086023256,1.2064297199249268,10.019000053405762,0.010570991784334183,0,160.1999969482422,-86.9154722,40.3848609,9.899365925094456,0.4391061880634826,-0.074598569,0.4431058547450501,0.013219589928110826,0.018193022,0.8961871677232021,0.007579107,-0.044338586,-0.918202566,-0.021599084,0.016153351873955103,4.0031251276038514E-5,Home
72,-52.25320885,13.108533687591553,19.44118755340576,-113.8134315,56.72743690490723,-8.87842783,-4.30E-05,2.3722223648168508E-5,-3.11E-05,9.939172735581032,0.4451110274172746,-0.074660668,-129.125,0.020948086,0.002946953,7.724431388586471E-4,0,0.086023256,1.2165387868881226,10.02400016784668,0.006939085,0,160.1999969482422,-86.9154722,40.3848609,9.939172735581032,0.4451110274172746,-0.074660668,0.4425135648366317,0.013262282830925242,0.018289564484820782,0.8964771657314116,0.007599538,-0.044544574,-0.91688205,-0.021575362,0.016058463,-3.11E-05,Home
73,-52.30640079,13.134641695022584,19.424961547851563,-113.8660133,56.755496978759766,-8.893799839,-1.93E-05,-9.49E-05,4.003125240628436E-5,9.957069535857265,0.4479108452796936,-0.07443595,-126.3333333,0.009772523,0.001302101,1.1596409151855024E-4,0,0.086023256,1.2265102863311768,10.01099967956543,0.009472534,0,160.1999969482422,-86.9154723,40.384861,9.957069535857265,0.4479108452796936,-0.07443595,0.44193997255806783,0.013267966213373884,0.018459569,0.8967565055032378,0.007487838,-0.0448498,-0.915607093,-0.021551639,0.015939852,4.003125240628436E-5,Home
74,-52.21953686,13.147085733413697,19.479251670837403,-113.7796378,56.76659885406494,-8.841217804,-1.14E-04,1.779166773612638E-4,-1.85E-04,9.954319555782577,0.44770176433822484,-0.074087481,-122.25,1.443844397091171E-4,5.642722532587144E-4,9.80792621385704E-4,0,0.086023256,1.236490011,10.01099967956543,0.005614917,0,160.1999969482422,-86.9154723,40.384861,9.954319555782577,0.44770176433822484,-0.074087481,0.44148168025664913,0.013291513502091458,0.018477909031857566,0.896981504,0.007536831,-0.044899688,-0.914584446,-0.021646528,0.016212657,-1.85E-04,Home
75,-52.2662632,13.132567749023437,19.43032964706421,-113.8257537,56.754032859802244,-8.889895849,4.0031251276038514E-5,1.0675000641675828E-4,-1.26E-04,9.948787485511557,0.44772499481451167,-0.073762243,-122.5555556,-0.002376742,4.46941956733037E-4,0.001141987,0,0.086023256,1.2464935779571533,10.02400016784668,0.008786729,0,160.1999969482422,-86.9154724,40.3848611,9.948787485511557,0.44772499481451167,-0.073762243,0.441107988,0.013278968,0.018481759227884625,0.8971654413973243,0.007529616,-0.044892387,-0.913751408,-0.021492334,0.016141490784735934,-1.26E-04,Home
76,-52.24174103,13.144523725509643,19.568189697265623,-113.800988,56.76428092956543,-8.753255854,1.8795300219118452E-4,-1.17E-04,-1.17E-05,9.946005682343419,0.44674928037865647,-0.075527821,-118.625,-0.001757695,2.146626894290631E-6,-6.05E-04,0,0.086023256,1.1061789989471436,9.93500042,0.059193064,0,160.1999969482422,-86.9154736,40.3848608,9.946005682343419,0.44674928037865647,-0.075527821,0.4407732730301527,0.013265180508964337,0.018479997381711237,0.8973301677749708,0.007523162,-0.04487425,-0.91300532,-0.021344412,0.01591727,-1.17E-05,Home
77,-52.30762104,12.98445972442627,19.541349639892577,-113.8677214,56.60494907,-8.778875856,2.0608681794346393E-4,9.488889459267403E-5,4.447915803785753E-6,9.943133659733151,0.4476320694372492,-0.074273331,-106.7777778,-0.001527305,-1.01E-04,5.132790691065557E-4,0,0.086023256,1.116147518157959,9.93500042,0.040009841322898865,0,160.1999969482422,-86.9154739,40.3848608,9.943133659733151,0.4476320694372492,-0.074273331,0.4403884601824492,0.013277854345449544,0.018536199842697207,0.897517745,0.007515638,-0.044983135,-0.912148669,-0.021326278,0.016129629668390866,4.447915803785753E-6,Home
78,-52.30164288,12.926875772476196,19.619063606262205,-113.8610116,56.545900650024414,-8.701283817,1.2305903913073458E-4,1.423333961408115E-4,-0.001952635,9.943121896206755,0.4321774537991552,-0.075641074,-118.75,0.018975109729952026,-0.002481853,-0.008906863,0,0.086023256,1.1261202096939087,9.93500042,0.022672625,0,160.1999969482422,-86.915474,40.3848608,9.943121896206755,0.4321774537991552,-0.075641074,0.4405597034588601,0.012655272356514792,0.018160635,0.8974502456998362,0.006719816,-0.04376127,-0.91253768,-0.021409306,0.016177074,-0.001952635,Home
79,-52.29054131,12.940051717758179,19.71324764251709,-113.8502759,56.55956481933594,-8.606977816,2.1794792920242526E-4,1.1861111824084254E-4,2.8170130409987516E-5,9.940392364576025,0.42716530688758036,-0.075853059,-120.1111111,0.004239305,-0.001365164,-0.001858866,0,0.086023256,1.136217474937439,9.93500042,0.009559714,0,160.1999969482422,-86.915474,40.3848608,9.940392364576025,0.42716530688758036,-0.075853059,0.4402486953920531,0.012825764724713506,0.017705521157499658,0.897609649,0.007442371,-0.04309167,-0.911825366,-0.021314417,0.016153351882997068,2.8170130409987516E-5,Home
80,-52.34287914,12.937123708724975,19.676647605895997,-113.9023695,56.55712478637695,-8.642235861,1.1119792165542112E-4,1.4233334188901105E-4,-7.86E-05,9.939219224800183,0.4276299326165209,-0.075620746,-121.1111111,4.546248797074105E-4,-4.03E-04,6.252660334688946E-4,0,0.086023256,1.146118402481079,9.93500042,0.00592898,0,160.1999969482422,-86.9154739,40.3848609,9.939219224800183,0.4276299326165209,-0.075620746,0.4400472991096163,0.012909022051370839,0.017631398477745287,0.897708675,0.007666956,-0.043030157,-0.911371801,-0.021421167,0.016177074,-7.86E-05,Home
81,-52.34385513,12.909307746887206,19.71227159500122,-113.9035895,56.52955310821533,-8.607709827,9.933681152670563E-5,3.558333547225276E-5,-1.93E-05,9.923665413489708,0.4246800048993184,-0.075949111,-118.625,-0.010351894,-0.001770842,2.121014285434797E-4,0,0.086023256,1.156113624572754,9.93500042,0.003711563,0,160.1999969482422,-86.9154739,40.3848609,9.923665413489708,0.4246800048993184,-0.075949111,0.4400495742131205,0.012877988954553905,0.017568749999537052,0.8977092342469298,0.007666264,-0.042890314,-0.911375951,-0.021433028,0.016070324131875362,-1.93E-05,Home
82,-52.34702709,12.906745767593383,19.70275556564331,-113.9071275,56.52638103485108,-8.616371803,1.3492014586871255E-4,-1.07E-04,6.37534743590841E-5,9.887076304,0.4214039488324841,-0.075713671,-124.1111111,-0.016600044,-0.00163582,6.770094115178562E-4,0,0.086023256,1.166122317314148,9.93500042,0.001768803,0,160.1999969482422,-86.9154739,40.3848609,9.887076304,0.4214039488324841,-0.075713671,0.4401043725823893,0.012852424773776416,0.017468233,0.8976846944938586,0.007706255,-0.042687709,-0.911495912,-0.021397445,0.015927991,6.37534743590841E-5,Home
83,-52.34910103,12.886981773376466,19.68238170623779,-113.9093236,56.50759281158447,-8.636867819,1.230590340446283E-4,3.558333547225276E-5,-1.93E-05,9.884311648248469,0.42001007106697674,-0.075063195,-125.625,-0.003561261,-0.00120661,2.3273479880638493E-4,0,0.086023256,1.1760649681091309,9.93500042,0.006969417,0,160.1999969482422,-86.9154738,40.384861,9.884311648248469,0.42001007106697674,-0.075063195,0.4401635498676485,0.012783232244473058,0.017430053662183215,0.8976574106123841,0.007612745,-0.042558705,-0.911628719,-0.021409306,0.016070324122833397,-1.93E-05,Home
84,-52.34666134,12.888567752838135,19.709953651428222,-113.906884,56.50942279815674,-8.610149822,1.4678125825791973E-4,-5.93E-05,1.8236459316504957E-4,9.888052023730232,0.4202888460413923,-0.073413774,-135.4444444,0.001384383,-6.93E-04,8.502906025613395E-4,0,0.086023256,1.1861239671707153,9.93500042,0.004671076,0,160.1999969482422,-86.9154738,40.384861,9.888052023730232,0.4202888460413923,-0.073413774,0.44017448529456427,0.012729664631549594,0.017448451894434912,0.8976524535892079,0.007499761,-0.042544673,-0.911655181,-0.021385584,0.015975435,1.8236459316504957E-4,Home
85,-52.42522915,12.919555730819702,19.619063720703124,-113.985574,56.54028861999512,-8.701649837,2.3494125287890292E-4,-1.06E-04,-1.17E-05,9.894766113133107,0.4206837774480431,-0.073227923,-142.5,0.003227326,-2.05E-05,9.691317637379353E-5,0,0.086023256,1.1960786581039429,9.93500042,0.004168322,0,160.1999969482422,-86.9154739,40.3848609,9.894766113133107,0.4206837774480431,-0.073227923,0.4401747865172533,0.012680024651882168,0.017445153,0.8976530742186767,0.007413455,-0.042495035,-0.911657203,-0.021297424,0.015929017207012154,-1.17E-05,Home
86,-52.33202114,12.911015739440918,19.695801639556883,-113.8919996,56.53199275970459,-8.624545813,1.3492014699895838E-4,-4.74E-05,1.3492014699895838E-4,9.899249771266307,0.4205908520707806,-0.073344079,-128.6666667,0.003174828,-8.60E-04,-6.52E-04,0,0.086023256,1.2060915231704712,10.020999908447266,0.003346979,0,160.1999969482422,-86.9154739,40.384861,9.899249771266307,0.4205908520707806,-0.073344079,0.4400762487383722,0.012657925676445938,0.017487865718967707,0.8977008652918547,0.007340783,-0.042551487,-0.911439454,-0.021397445,0.015987296326501855,1.3492014699895838E-4,Home
87,-52.34946735,12.935171718597411,19.687505626678465,-113.9099339,56.55480693817139,-8.632231827,4.447913543294066E-6,5.930555912042127E-5,4.0031250145792674E-5,9.934343375048591,0.4255158840452583,-0.074110712,-127.5,0.019324377,0.002172912,-1.35E-05,0,0.086023256,1.2161732912063599,10.03499984741211,0.003088399,0,160.1999969482422,-86.9154739,40.384861,9.934343375048591,0.4255158840452583,-0.074110712,0.4398214446688161,0.012734393887583491,0.017512574321725993,0.8978241624184025,0.007468555,-0.042661082,-0.910870063,-0.021527917,0.016094046310313696,4.0031250145792674E-5,Home
88,-52.31335518,12.946883726119996,19.684699611663817,-113.8732114,56.56688507080078,-8.635891848,4.4479163689086735E-6,2.3722223648168508E-5,2.8170138321708416E-5,9.954885825370122,0.4272117689975257,-0.073111766,-129.8888889,0.010477278996439814,5.013488450096649E-4,0.001046443,0,0.086023256,1.226143479347229,10.03499984741211,0.001722266,0,160.1999969482422,-86.9154739,40.384861,9.954885825370122,0.4272117689975257,-0.073111766,0.4395808126162557,0.012769412,0.0176151,0.8979395066650169,0.007452719,-0.042874099,-0.910335809,-0.021527917,0.016058462988404396,2.8170138321708416E-5,Home
89,-52.38655518,12.944443769454956,19.67908763885498,-113.9467773,56.56493278503418,-8.640161858,1.7050348190608824E-4,-1.54E-04,5.189236310012277E-5,9.952980828516692,0.42828040881064333,-0.072786528,-126.625,5.586124160914745E-4,6.362361815369246E-5,9.592398277764182E-5,0,0.086023256,1.2361468076705933,10.03499984741211,0.004001071,0,160.1999969482422,-86.915474,40.384861,9.952980828516692,0.42828040881064333,-0.072786528,0.4394683574588553,0.012732587302628072,0.017698530469415257,0.8979934338227059,0.007318499,-0.042990709,-0.910088779,-0.021361862,0.015880546315564115,5.189236310012277E-5,Home
90,-52.36386337,12.92358175,19.67335361480713,-113.9234755,56.54297294616699,-8.646017857,2.817013945195426E-5,1.541944537130953E-4,2.817013945195426E-5,9.948712486,0.427763065,-0.074867739,-120.5555556,-0.001923867,-4.62E-04,-6.95E-04,0,0.086023256,1.2461847066879272,10.03499984741211,0.001152814,0,160.1999969482422,-86.9154739,40.384861,9.948712486,0.427763065,-0.074867739,0.4393056986980068,0.012784330020613462,0.017673685,0.8980727571885563,0.007441167,-0.042990195,-0.909724108,-0.021504195,0.016188935213948336,2.817013945195426E-5,Home
91,-52.3128672,12.955057764053345,19.620893745422364,-113.8724799,56.57505855560303,-8.699575863,5.189236310012277E-5,2.0163890100943232E-4,-1.02E-04,9.945715237589715,0.42818748314403793,-0.073692549,-137.2222222,-0.001990902,6.33220649459987E-4,0.001571275,45,0.086023256,1.105468988418579,9.93500042,0.12694045901298523,253.82171630859375,160.1999969482422,-86.9154766,40.3848604,9.945715237589715,0.42818748314403793,-0.073692549,0.4391714910280357,0.012827833273529429,0.017630798,0.8981386324734364,0.007563507,-0.042950242,-0.909422558,-0.021480473,0.01623638,-1.02E-04,Home
92,-52.34995506,12.899181756973267,19.671767597198485,-113.90969,56.51942691802979,-8.648213835,1.4678125882304263E-4,0,-7.41E-06,9.944071612311799,0.42809455834546134,-0.073576393,-132.625,-6.18E-04,-1.68E-04,0.00134673,0,0.086023256,1.115514874458313,9.93500042,0.088219829,0,160.1999969482422,-86.9154772,40.3848604,9.944071612311799,0.42809455834546134,-0.073576393,0.4390336000224919,0.012829086634791593,0.017674360189189033,0.8982051715110112,0.007534073,-0.043028478,-0.909116616,-0.021385584,0.016034740809966058,-7.41E-06,Home
93,-52.33507118,12.931267728805542,19.647977600097658,-113.8954161,56.55114669799805,-8.672003813,5.1892364230368614E-5,9.488889459267403E-5,-1.93E-05,9.940130955964616,0.4274905422358837,-0.073506699,-130.1111111,-0.002287068,-5.08E-04,5.634434665869741E-4,0,0.086023256,1.1255608797073364,9.93500042,0.045004699379205704,0,160.1999969482422,-86.9154774,40.3848604,9.940130955964616,0.4274905422358837,-0.073506699,0.4390280365365223,0.012785226965630517,0.017686081,0.8982082813688852,0.007445177,-0.043010973,-0.909105856,-0.021480473,0.016129629668390866,-1.93E-05,Home
94,-52.33848713,12.92101972579956,19.730815620422362,-113.8984653,56.54065475463867,-8.589775858,1.9970006430342508E-4,-4.70E-05,7.048237547188855E-5,9.934735418523399,0.42660775346663393,-0.075086426,-125.5,-0.003849424,-8.85E-04,-6.84E-04,0,0.086023256,1.1354138851165771,9.93500042,0.018177445977926254,0,160.1999969482422,-86.9154773,40.3848605,9.934735418523399,0.42660775346663393,-0.075086426,0.4389633100766402,0.012793860702703778,0.017664581734257247,0.898240216,0.007482694,-0.042979376,-0.908960784,-0.021332665,0.015987753,7.048237547188855E-5,Home
95,-52.36813305,12.92394772529602,19.786569671630858,-113.9277453,56.54370491027832,-8.533289862,1.705034813409653E-4,-1.19E-05,-7.41E-06,9.926058306277376,0.42528357175947396,-0.07497027,-131.6666667,-0.00310546,-0.001004944,9.263552797650828E-5,0,0.086023256,1.145533561706543,9.93500042,0.00827479,0,160.1999969482422,-86.9154773,40.3848606,9.926058306277376,0.42528357175947396,-0.07497027,0.4389512003625481,0.012807928360275273,0.017611531179072788,0.8982469763570619,0.007555184,-0.042896274,-0.908931839,-0.021361862,0.016022879666495092,-7.41E-06,Home
96,-52.30249718,12.90284173965454,19.63589963912964,-113.8622314,56.521622848510745,-8.684081888,1.9422570498913382E-4,-1.66E-04,1.705034813409653E-4,9.924014110009647,0.4245634003750329,-0.074064249,-133,-0.004501278,-0.001622276,2.4326677316600836E-4,0,0.086023256,1.1555148363113403,9.93500042,0.004317469,0,160.1999969482422,-86.9154772,40.3848606,9.924014110009647,0.4245634003750329,-0.074064249,0.4389535616902472,0.012772359180001958,0.017624697,0.89824607,0.007479545,-0.042888721,-0.908938527,-0.021338139,0.015868685,1.705034813409653E-4,Home
97,-52.28517311,12.880271816253662,19.652857646942138,-113.8452737,56.50015068054199,-8.668221893,4.447915803785753E-6,7.116667094450552E-5,-3.11E-05,9.890468153,0.4215665665066358,-0.074668263,-126.8888889,-0.01509522,-0.001613373,-4.07E-05,0,0.086023256,1.1654056310653687,9.93500042,0.007058306,0,160.1999969482422,-86.9154772,40.3848607,9.890468153,0.4215665665066358,-0.074668263,0.4390148332396757,0.012751171,0.017521409,0.89821845,0.007529286,-0.042684971,-0.909072615,-0.021527917,0.016105907,-3.11E-05,Home
98,-52.34641701,12.896741743087768,19.737403659820558,-113.9067617,56.51686489105224,-8.582455807,4.0031250710915594E-5,9.488889459267403E-5,-1.02E-04,9.885026317376356,0.42056159044687563,-0.075557977,-150.125,-0.004047533,-5.04E-04,-1.55E-04,0,0.086023256,1.1754645109176636,9.93500042,0.009340759,0,160.1999969482422,-86.9154772,40.3848608,9.885026317376356,0.42056159044687563,-0.075557977,0.43903497353340815,0.012760666,0.017434237,0.8982101667274549,0.007622009,-0.0425368,-0.90911467,-0.021492334,0.016129629704558734,-1.02E-04,Home
99,-52.34544113,12.907843770980834,19.722397537231444,-113.9057854,56.527113075256345,-8.597461748,-6.67E-05,1.1861111824084254E-5,5.189236253499985E-5,9.890700506932527,0.4185232679242069,-0.075388433,-142.2222222,0.002169702,-0.001198072,6.213153088555752E-4,0,0.086023256,1.1854842901229858,9.93500042,0.026821304112672806,0,160.1999969482422,-86.915477,40.3848611,9.890700506932527,0.4185232679242069,-0.075388433,0.4390591406127782,0.012763161,0.017367092404261375,0.89819962,0.007684363,-0.042418515,-0.909166502,-0.021599084,0.016046601908227192,5.189236253499985E-5,Home
100,-52.33165512,12.897961740493775,19.67335361480713,-113.8924878,56.51893875,-8.646871872,-9.04E-05,4.7444447296337016E-5,2.8170138321708416E-5,9.896206531709838,0.41942928774842936,-0.074923807,-134.625,0.002708083,-6.25E-05,5.035380136619494E-4,0,0.086023256,1.195460557937622,9.93500042,0.022340400144457817,0,160.1999969482422,-86.915477,40.3848613,9.896206531709838,0.41942928774842936,-0.074923807,0.439097844,0.012719232941643127,0.017357218739332506,0.8981815130965224,0.007612229,-0.042362509,-0.909253712,-0.021622806,0.016082185,2.8170138321708416E-5,Home
101,-52.40863731,12.92065378189087,19.726057682037354,-113.9691038,56.53931289672852,-8.594655876,1.1119792335078988E-4,-2.37E-05,-4.30E-05,9.910540081,0.42172918533815923,-0.075736902,-156.8888889,0.010031052006101146,0.001240656,1.675789651361484E-4,0,0.086023256,1.2055641412734985,10.045000076293945,0.040175613,0,160.1999969482422,-86.9154768,40.3848617,9.910540081,0.42172918533815923,-0.075736902,0.43895692472319003,0.012760028975464187,0.017380546886944077,0.89824936,0.007671738,-0.042439074,-0.908939286,-0.021421167,0.016011018523024122,-4.30E-05,Home
102,-52.36020317,12.909307718276978,19.632849655151368,-113.9199374,56.52906487,-8.686521854,4.0031251276038514E-5,2.3722223648168508E-5,-4.30E-05,9.949713947703538,0.4268865319131647,-0.075969215,-127.875,0.018073081970214844,0.002771309,2.5985433349331603E-4,0,0.086023256,1.215532660484314,10.045000076293945,0.03274855,0,160.1999969482422,-86.9154767,40.3848619,9.949713947703538,0.4268865319131647,-0.075969215,0.43875631805762505,0.012796829111006075,0.017480823437421068,0.8983448888491659,0.007659339,-0.042649925,-0.908494275,-0.021492334,0.016058462979362427,-4.30E-05,Home
103,-52.32043114,12.894057788848876,19.678477668762206,-113.8802876,56.512594833374024,-8.641625862,9.397650025605869E-5,8.222943870350718E-5,1.1747061552551504E-5,9.956741416338579,0.4264915987704564,-0.074133943,-140.4444444,0.005269482,-3.27E-05,0.001603928,0,0.086023256,1.225504994392395,10.045000076293945,0.045638237,0,160.1999969482422,-86.9154763,40.3848624,9.956741416338579,0.4264915987704564,-0.074133943,0.43858815643649834,0.012813310407531949,0.017576517913347252,0.8984249050800617,0.007612946,-0.042834992,-0.908122032,-0.021438389,0.016116970200808003,1.1747061552551504E-5,Home
104,-52.32811699,12.86477770805359,19.660665683746338,-113.8878517,56.48697505950928,-8.660657911,4.0031251841161433E-5,2.846666837780221E-4,7.561458674829128E-5,9.951897713744525,0.42649159905979933,-0.073553161,-121.4444444,-0.00140866,-3.06E-04,0.00173475,0,0.086023256,1.2354623079299927,10.029000282287598,0.031802210956811905,0,160.1999969482422,-86.9154763,40.3848625,9.951897713744525,0.42649159905979933,-0.073553161,0.43857068546767375,0.012791043084150957,0.017592682331366447,0.8984334353104378,0.007559542,-0.042844366,-0.908084261,-0.021492334,0.016319407466618183,7.561458674829128E-5,Home
105,-52.35617702,12.927851810455323,19.733133563995363,-113.9165218,56.54760871887207,-8.587945824,4.0031251841161433E-5,1.4233334188901105E-4,5.189236310012277E-5,9.947501145520256,0.42656129193537445,-0.073831936,-110.5,-0.002340696,-4.45E-04,0.001204212,0,0.086023256,1.2456130981445312,10.045000076293945,0.019720805808901787,0,160.1999969482422,-86.9154763,40.3848626,9.947501145520256,0.42656129193537445,-0.073831936,0.4385261833667755,0.012787746084691251,0.017614223,0.898454785,0.007536827,-0.042879828,-0.907985876,-0.021492334,0.016177074,5.189236310012277E-5,Home
106,-52.38984928,12.952983741760255,19.71361358642578,-113.9500715,56.573106880187986,-8.605879822,1.823645937301725E-4,2.3722223648168508E-4,7.561458618316836E-5,9.945169272932034,0.4274905431039125,-0.074528875,-120.8888889,-0.001319061,-6.23E-05,0.001152005,0,0.086023256,1.105210781097412,9.93500042,0.080975905,0,160.1999969482422,-86.915478,40.3848622,9.945169272932034,0.4274905431039125,-0.074528875,0.43838713875094665,0.012830421084411514,0.017632506842028748,0.8985216663879099,0.007604183,-0.042948965,-0.907675511,-0.021350001,0.016271963010279878,7.561458618316836E-5,Home
107,-52.32140713,12.905037813186645,19.665057754516603,-113.8815072,56.524184761047366,-8.654923859,1.3492014643383548E-4,1.4233334188901105E-4,2.8170138321708416E-5,9.941620340714088,0.4279011106834962,-0.074476605,-109.625,-0.001677226,-3.22E-04,9.098448654980335E-4,0,0.086023256,1.1153656244277954,9.93500042,0.057326477,0,160.1999969482422,-86.9154785,40.3848622,9.941620340714088,0.4279011106834962,-0.074476605,0.4383061502165007,0.012836726771179334,0.017677598027060332,0.8985602033948435,0.007579834,-0.043034886,-0.907496286,-0.021397445,0.016177074,2.8170138321708416E-5,Home
108,-52.34056122,12.942979764938354,19.68286954879761,-113.9004173,56.56273674011231,-8.637721844,2.8170138321708416E-5,-1.19E-05,-1.62E-04,9.939570538048605,0.42709561140791885,-0.074737957,-141.2222222,-0.001473223,9.474765907213525E-5,4.8281556194268384E-4,0,0.086023256,1.1253138780593872,9.93500042,0.027337698,0,160.1999969482422,-86.9154785,40.3848623,9.939570538048605,0.42709561140791885,-0.074737957,0.43834453502905024,0.012804819822528409,0.017627605553535583,0.898542916,0.007564471,-0.042917336,-0.907581248,-0.021504195,0.016022879657453123,-1.62E-04,Home
109,-52.37447735,12.914675703048706,19.697387599945067,-113.934822,56.53284679412842,-8.623081827,1.1119792335078988E-4,7.116667094450552E-5,1.630902819299293E-5,9.938243375241179,0.4266077557813774,-0.075295508,-121.125,-0.001582757,-5.96E-04,4.184392543093672E-4,0,0.086023256,1.1352092027664185,9.93500042,0.034998689,0,160.1999969482422,-86.915478,40.3848628,9.938243375241179,0.4266077557813774,-0.075295508,0.4382499708133994,0.012832025192605638,0.017625786345994588,0.8985886880495015,0.007619521,-0.042937124,-0.907369818,-0.021421167,0.016105907,1.630902819299293E-5,Home
110,-52.3173811,12.929071741104126,19.73569553375244,-113.8773595,56.549682693481444,-8.584041805,7.561458787853712E-5,9.488889459267403E-5,-1.50E-04,9.925825906,0.4244704773125139,-0.074737957,-119.6666667,-0.005045224,-5.82E-04,0.001001443,0,0.086023256,1.145344614982605,9.93500042,0.030769404023885727,0,160.1999969482422,-86.9154778,40.384863,9.925825906,0.4244704773125139,-0.074737957,0.43835702451687414,0.012790527,0.017550777842842258,0.8985385281368367,0.007605579,-0.042766769,-0.907607239,-0.021456751,0.016129629668390866,-1.50E-04,Home
111,-52.37996696,12.886981716156006,19.74057571411133,-113.9400675,56.506860885620114,-8.579893827,2.1794792920242526E-4,-5.93E-05,-4.30E-05,9.924272527972471,0.4247492537336442,-0.0742501,-125.25,-0.003812892,-2.60E-04,6.340551868225764E-4,0,0.086023256,1.155242919921875,9.93500042,0.020870007574558258,0,160.1999969482422,-86.9154778,40.3848631,9.924272527972471,0.4247492537336442,-0.0742501,0.4383773314721376,0.012761478999503029,0.017567390377081715,0.8985287084162814,0.007537785,-0.042771331,-0.907653796,-0.021314417,0.015975435201114822,-4.30E-05,Home
112,-52.39265511,12.89186173439026,19.725447731018065,-113.9525115,56.512472801208496,-8.594167862,1.7620593839987682E-4,-2.35E-05,1.1747061552551504E-5,9.889004503638999,0.42038176968259716,-0.074273331,-119.8888889,-0.016274131,-0.00177617,1.9245687872171402E-4,0,0.086023256,1.1652463674545288,9.93500042,0.009821285,0,160.1999969482422,-86.9154778,40.3848631,9.889004503638999,0.42038176968259716,-0.074273331,0.4385094619714297,0.012714407012726251,0.017487146,0.8984664672842393,0.007517267,-0.042586876,-0.90794708,-0.021356159,0.016011246659148198,1.1747061552551504E-5,Home
113,-52.36898705,12.878197765350341,19.74374771118164,-113.9290879,56.49844287872315,-8.576477823,1.3492014643383548E-4,2.3722223648168508E-5,-4.30E-05,9.883893466690212,0.4191969760413309,-0.07318146,-144.125,-0.004120605,-7.82E-04,9.071322031391477E-4,0,0.086023256,1.1753005981445312,9.93500042,0.008551189,0,160.1999969482422,-86.9154778,40.3848632,9.883893466690212,0.4191969760413309,-0.07318146,0.43863566205339527,0.012670951226310245,0.017424631393650202,0.8984066884494523,0.007488019,-0.042437409,-0.908227588,-0.021397445,0.016058462979362427,-4.30E-05,Home
114,-52.34714912,12.879905757904053,19.67823362350464,-113.9070058,56.500760803222654,-8.642723827,8.747569970262138E-5,-2.02E-04,-1.93E-05,9.888632802,0.4185000362905484,-0.075039964,-129.6666667,0.001830953,-4.77E-04,-0.001242008,0,0.086023256,1.1852384805679321,9.93500042,0.010405739769339561,0,160.1999969482422,-86.9154777,40.3848633,9.888632802,0.4185000362905484,-0.075039964,0.4387361149764755,0.012639120772697972,0.017386361902344574,0.8983588317065563,0.007459638,-0.042341511,-0.908451132,-0.021444889,0.015833102,-1.93E-05,Home
115,-52.33580307,12.94114972114563,19.679941635131836,-113.8956596,56.56102897644043,-8.640283861,9.933680926621394E-5,-7.12E-05,2.817013945195426E-5,9.893767134657184,0.4199171445323426,-0.074273331,-124.875,0.002580217,3.1509011694528524E-4,-2.55E-04,0,0.086023256,1.195265769958496,9.93500042,0.0011902,0,160.1999969482422,-86.9154778,40.3848632,9.893767134657184,0.4199171445323426,-0.074273331,0.43864499943927654,0.01265557,0.017403414418685783,0.8984027626444993,0.007478545,-0.042385845,-0.90824822,-0.021433028,0.015963574120937622,2.817013945195426E-5,Home
116,-52.35605518,12.93700177192688,19.62394359588623,-113.9165217,56.55675872802735,-8.69554987,1.586423706471269E-4,7.116667094450552E-5,2.817013945195426E-5,9.907114120630117,0.4195032271628196,-0.075419929,-119.8888889,0.008769517,-4.08E-04,-2.57E-04,0,0.086023256,1.205276370048523,10.06000042,0.004730601,0,160.1999969482422,-86.9154777,40.3848633,9.907114120630117,0.4195032271628196,-0.075419929,0.43850823773921116,0.012702426,0.017381868,0.8984692756412098,0.007588182,-0.042387076,-0.907941661,-0.021373723,0.016105907,2.817013945195426E-5,Home
117,-52.33738926,12.918701734542847,19.634801692962647,-113.8974897,56.53894691467285,-8.686033869,-7.41E-06,-4.74E-05,-4.30E-05,9.947977371586179,0.42560881000120665,-0.076178297,-123.5,0.019886600161061703,0.002961244,-1.63E-05,0,0.086023256,1.2153741121292114,10.06000042,0.008502473,0,160.1999969482422,-86.9154778,40.3848634,9.947977371586179,0.42560881000120665,-0.076178297,0.43829490085249967,0.012767415728817866,0.017428757,0.8985715300134085,0.007674027,-0.042526575,-0.907466055,-0.021539778,0.015987296326501855,-4.30E-05,Home
118,-52.31469685,12.898815755844117,19.763999671936034,-113.8745541,56.51942703,-8.555005798,8.747569970262138E-5,2.3722223648168508E-5,1.6309027062747086E-5,9.953898466906502,0.426886531,-0.07406425,-126.7777778,0.004794213,6.495624491311971E-4,0.001206103,0,0.086023256,1.2253042459487915,10.06000042,0.015680909156799316,0,160.1999969482422,-86.9154781,40.3848632,9.953898466906502,0.426886531,-0.07406425,0.43813215847154263,0.012772090488918197,0.017589287488784605,0.898647707,0.007549346,-0.042817955,-0.907108191,-0.021444889,0.016058463024572263,1.6309027062747086E-5,Home
119,-52.36069118,12.903573713302613,19.650051612854003,-113.9207912,56.52357494354248,-8.669685841,-3.85E-05,-4.74E-05,7.561458787853712E-5,9.951389488664645,0.4267703746129008,-0.073111766,-121.4444444,-4.54E-04,-2.29E-06,6.821763529939558E-4,0,0.086023256,1.2351897954940796,10.041999816894531,0.009385389,0,160.1999969482422,-86.9154781,40.3848632,9.951389488664645,0.4267703746129008,-0.073111766,0.4381879160126436,0.012715381552076455,0.017625609,0.8986206135703522,0.007412818,-0.042834022,-0.907235072,-0.021433028,0.015987296299375956,7.561458787853712E-5,Home
120,-52.3266531,12.91992172241211,19.727155685424805,-113.8871194,56.54016693115234,-8.592703838,1.0081945050471616E-4,-1.19E-04,1.6309027062747086E-5,9.947222367073726,0.4264219050268525,-0.07262391,-118.25,-0.002138777,7.186989182407416E-6,3.1034344608343924E-5,0,0.086023256,1.2452795505523682,10.06000042,0.004258413,0,160.1999969482422,-86.9154781,40.3848632,9.947222367073726,0.4264219050268525,-0.07262391,0.4382239435482951,0.012663594320488787,0.017645843923815244,0.8986033785690382,0.007300195,-0.0428253,-0.907317408,-0.021278834,0.015916129673641283,1.6309027062747086E-5,Home
121,-52.33141121,12.94651774406433,19.614061679840088,-113.8912676,56.565664558410646,-8.705187874,-1.76E-04,9.397650137543678E-5,1.1747061552551504E-5,9.944823774,0.427188538,-0.074482413,-119.1111111,-0.001252284,-3.46E-04,-7.50E-04,0,0.086023256,1.1045238971710205,9.93500042,0.020931918174028397,0,160.1999969482422,-86.9154782,40.3848635,9.944823774,0.427188538,-0.074482413,0.4380161894055513,0.012736504798969971,0.017681175430950064,0.8987029355305892,0.007410291,-0.042951039,-0.90685373,-0.021555859,0.016128717267957445,1.1747061552551504E-5,Home
122,-52.32152924,12.90015775680542,19.642731742858885,-113.8817517,56.52150112,-8.677249842,6.52361150324634E-5,8.302778276858978E-5,2.8170138321708416E-5,9.942242150167816,0.4273046958215028,-0.074389487,-139,-0.001293432,-4.46E-04,5.341593212294347E-4,0,0.086023256,1.1144590377807617,9.93500042,0.041566033,0,160.1999969482422,-86.9154779,40.384864,9.942242150167816,0.4273046958215028,-0.074389487,0.43787257,0.012794211552053401,0.0176706,0.8987723085486773,0.007530251,-0.042981393,-0.906531968,-0.021314417,0.016117768570129733,2.8170138321708416E-5,Home
123,-52.33848713,12.909551725387573,19.669815635681154,-113.8982213,56.53028480529785,-8.649311867,1.779166773612638E-5,4.7444447296337016E-5,-5.49E-05,9.940276192229929,0.42679360451050175,-0.074714725,-145.1111111,-0.001001238,2.2315516055208966E-4,1.2566254121585958E-4,0,0.086023256,1.1245441436767578,9.93500042,0.028025943785905838,0,160.1999969482422,-86.9154777,40.3848641,9.940276192229929,0.42679360451050175,-0.074714725,0.43792414723090756,0.012768404079076735,0.017622409641598034,0.8987484950463749,0.007523596,-0.042872545,-0.906646141,-0.021361862,0.016082185,-5.49E-05,Home
124,-52.33409508,12.875879764556885,19.63480176925659,-113.893708,56.49575901031494,-8.68566781,-6.52E-05,-4.74E-05,-7.41E-06,9.931482981709602,0.42600374227588617,-0.07443595,-132.125,-0.006266159,-5.83E-04,2.0876620869034703E-4,0,0.086023256,1.1345797777175903,9.93500042,0.008028166,0,160.1999969482422,-86.915478,40.384864,9.931482981709602,0.42600374227588617,-0.07443595,0.43791053943263675,0.012764148712519881,0.017633850044272478,0.8987549624396759,0.00750656,-0.042889279,-0.906616305,-0.021444889,0.015987296335543823,-7.41E-06,Home
125,-52.32738514,12.87441575050354,19.66969367980957,-113.8876073,56.49466110229492,-8.649799891,6.52361150324634E-5,-1.19E-05,-9.04E-05,9.930354824,0.42606047884776044,-0.073165154,-134.3333333,0.001013672,7.712166864895126E-4,6.992598109453628E-4,0,0.086023256,1.1445800065994263,9.93500042,0.005058515,0,160.1999969482422,-86.915478,40.3848639,9.930354824,0.42606047884776044,-0.073165154,0.43801249954306964,0.012717688573723279,0.017610885998577748,0.8987063858115557,0.007438243,-0.042808117,-0.906844,-0.021314417,0.01602288,-9.04E-05,Home
126,-52.4393811,12.87380576133728,19.632971706390382,-113.9997256,56.49319683074951,-8.686643906,-1.01E-04,-1.54E-04,6.375347548932994E-5,9.926316946455575,0.42556234673388954,-0.074598569,-130.25,-0.004871998,-9.01E-04,-7.10E-04,0,0.086023256,1.1544115543365479,9.93500042,0.021993609,0,160.1999969482422,-86.9154783,40.3848636,9.926316946455575,0.42556234673388954,-0.074598569,0.437953013,0.012732938827169173,0.017649019,0.8987344086748882,0.007435087,-0.042889567,-0.906712237,-0.021480473,0.015880546,6.375347548932994E-5,Home
127,-52.46975903,12.847819757461547,19.738623676300048,-114.0299817,56.46830898284912,-8.580259905,1.3640278597696893E-4,-1.66E-04,2.817013945195426E-5,9.883638039375972,0.4205908535174953,-0.073413773,-137.4444444,-0.020192841,-0.002297631,-4.57E-04,0,0.086023256,1.164412498474121,9.93500042,0.011061992,0,160.1999969482422,-86.9154783,40.3848637,9.883638039375972,0.4205908535174953,-0.073413773,0.43816104299813796,0.012656315971274399,0.017564252091264262,0.8986357485206382,0.007361669,-0.042671688,-0.907175173,-0.021243251,0.015868685289638713,2.817013945195426E-5,Home
128,-52.43999107,12.827933778762818,19.760217666625977,-114.0000919,56.44781265258789,-8.560007868,-4.15E-05,-2.25E-04,-7.41E-06,9.873253683442051,0.4190575873967513,-0.073181461,-139.125,-0.007162076,-0.001159705,-0.001009584,0,0.086023256,1.1744545698165894,9.93500042,0.002984919,0,160.1999969482422,-86.9154782,40.3848638,9.873253683442051,0.4190575873967513,-0.073181461,0.4383317715334661,0.012592968,0.017495652769231103,0.8985547139806654,0.007299798,-0.042494185,-0.90755517,-0.021421167,0.01580938,-7.41E-06,Home
129,-52.39326515,12.872951745986938,19.68421157836914,-113.9531216,56.49368507385254,-8.636379881,-1.25E-04,-1.78E-04,2.8170138321708416E-5,9.877086778288906,0.4181051028584971,-0.074296563,-140.3333333,0.001143057,-8.11E-04,-0.001100533,0,0.086023256,1.1845275163650513,9.93500042,0.004099311,0,160.1999969482422,-86.9154783,40.3848638,9.877086778288906,0.4181051028584971,-0.074296563,0.43835590041956857,0.012615958,0.017419404,0.898544106,0.00740691,-0.042377447,-0.907606022,-0.021504195,0.015856824119041844,2.8170138321708416E-5,Home
130,-52.35983692,12.887835760116577,19.67481761932373,-113.9192055,56.50686073303223,-8.644187813,-1.53E-04,1.1747062671929598E-5,-3.52E-05,9.882894590063003,0.4180354108509508,-0.076155066,-145.6666667,0.002742437,2.1408240382487958E-4,-0.001025487,0,0.086023256,1.194446325302124,9.93500042,0.007078386,0,160.1999969482422,-86.9154783,40.3848639,9.882894590063003,0.4180354108509508,-0.076155066,0.4383356703015474,0.012672641,0.017325044717066564,0.898554996,0.00759261,-0.042257325,-0.907556614,-0.021532365,0.016046487869551547,-3.52E-05,Home
131,-52.38179726,12.894667720794677,19.667619667053224,-113.9416534,56.51527893066406,-8.652483854,-1.01E-04,-5.93E-05,-7.41E-06,9.887912639136454,0.4183606490926835,-0.073669318,-126,0.002964001,-1.41E-04,0.001045696,0,0.086023256,1.2045083045959473,10.074000358581543,0.009453761,0,160.1999969482422,-86.9154783,40.384864,9.887912639136454,0.4183606490926835,-0.073669318,0.4383256791286098,0.012664632935040785,0.017353466,0.8985594337426343,0.007553742,-0.042301318,-0.907535408,-0.021480473,0.015975435,-7.41E-06,Home
132,-52.32775108,12.894911775588989,19.76363359451294,-113.8879738,56.51540073394776,-8.556713781,-1.48E-04,-7.12E-05,-1.50E-04,9.896833669792102,0.4191040503747255,-0.07390163,-135.7777778,0.005112879,8.857944636668974E-4,-1.68E-04,0,0.086023256,1.214446783065796,10.074000358581543,0.01176203,0,160.1999969482422,-86.9154782,40.3848641,9.896833669792102,0.4191040503747255,-0.07390163,0.43843135440233844,0.012607192,0.017349045,0.8985087761601198,0.007449329,-0.042243878,-0.907772263,-0.021527917,0.015963574129979587,-1.50E-04,Home
133,-52.35373699,12.932609729766845,19.667131595611572,-113.9139597,56.55248898,-8.652971869,-2.43E-04,-1.07E-04,2.416701517203479E-4,9.932545865623696,0.42426139550301634,-0.073599624,-129.5,0.019576739338995182,0.002829892,-1.76E-04,0,0.086023256,1.2245644330978394,10.074000358581543,0.011736537329852581,0,160.1999969482422,-86.9154782,40.3848642,9.932545865623696,0.42426139550301634,-0.073599624,0.4382835238882639,0.012634260534733823,0.017466304407825747,0.8985782254089429,0.007402128,-0.042477232,-0.907445693,-0.021622806,0.015927991,2.416701517203479E-4,Home
134,-52.35861694,12.899303789138793,19.70409767150879,-113.9187173,56.51845092773438,-8.616615782,-8.90E-05,1.541944537130953E-4,4.447915803785753E-6,9.949742097,0.42606047884776044,-0.072889059,-126,0.008585624,3.64738760642635E-4,0.001033121,0,0.086023256,1.234424352645874,10.053999900817871,0.011471877805888653,0,160.1999969482422,-86.9154782,40.3848643,9.949742097,0.42606047884776044,-0.072889059,0.43802743513607284,0.012710821172855432,0.01760765,0.8986992668179632,0.007428014,-0.042796403,-0.906877356,-0.021468612,0.016188935,4.447915803785753E-6,Home
135,-52.35422508,12.889177732467651,19.691043643951417,-113.9137157,56.50893493652344,-8.629059849,-8.90E-05,5.930555912042127E-5,-1.38E-04,9.948648147,0.42514418600832377,-0.073971324,-143.625,0.00130296,-7.26E-05,8.329745490574143E-5,0,0.086023256,1.244523286819458,10.074000358581543,0.011695662513375282,0,160.1999969482422,-86.9154783,40.3848644,9.948648147,0.42514418600832377,-0.073971324,0.43809124711647773,0.012696866615159997,0.017561732673818626,0.8986692544326041,0.007440136,-0.042702126,-0.907018506,-0.021468612,0.016094046,-1.38E-04,Home
136,-52.3229932,12.90637975692749,19.62369962692261,-113.8830935,56.526625061035155,-8.696281843,-1.48E-04,2.1350001283351657E-4,7.561458787853712E-5,9.947074288303412,0.4251209537959793,-0.074319794,-132.6666667,-8.10E-04,-4.11E-04,4.3361742519637916E-4,0,0.086023256,1.103899359703064,9.93500042,0.030128048732876778,0,160.1999969482422,-86.9154789,40.3848644,9.947074288303412,0.4251209537959793,-0.074319794,0.43802601619831566,0.012733785580228833,0.017561417380438267,0.8987005376121373,0.007509932,-0.042733374,-0.906872178,-0.021527917,0.016248240768547775,7.561458787853712E-5,Home
137,-52.32592106,12.898937759399415,19.677989711761473,-113.8863879,56.51967086791992,-8.641747818,1.779166773612638E-5,1.304722300649268E-4,-5.49E-05,9.941519042820607,0.42470278988764126,-0.074830882,-122.75,-0.00344057,5.9490354315748495E-5,7.8117775106893E-4,0,0.086023256,1.1139229536056519,9.93500042,0.020387103781104088,0,160.1999969482422,-86.915479,40.3848644,9.941519042820607,0.42470278988764126,-0.074830882,0.4380159835213596,0.012763425807278711,0.017511381,0.8987059818888173,0.007607603,-0.042669281,-0.906847513,-0.021361862,0.016165212972216236,-5.49E-05,Home
138,-52.297617,12.916505737304687,19.704829711914062,-113.8573517,56.53821491241455,-8.615883789,-1.36E-04,1.6605556553717955E-4,-4.30E-05,9.937973346525025,0.42549265299028566,-0.075272276,-126.1111111,-5.54E-04,7.046044451519124E-4,0.001021855,0,0.086023256,1.1239190101623535,9.93500042,0.011208624579012394,0,160.1999969482422,-86.915479,40.3848645,9.937973346525025,0.42549265299028566,-0.075272276,0.4379506733232332,0.012799514,0.017512869,0.898737267,0.007674326,-0.042703024,-0.906701102,-0.021516056,0.016200796357419306,-4.30E-05,Home
139,-52.30518089,12.908331785202027,19.63833948135376,-113.8651596,56.52760097503662,-8.68176383,-2.35E-05,1.1747062671929598E-4,3.52411857770326E-5,9.941100972370037,0.4252138777265271,-0.075388433,-133.7777778,4.2984118828406703E-4,-1.37E-04,5.768486298620701E-4,0,0.086023256,1.1338790655136108,9.93500042,0.009469001,0,160.1999969482422,-86.915479,40.3848646,9.941100972370037,0.4252138777265271,-0.075388433,0.43794014075627696,0.01278921,0.017546748,0.8987418865928283,0.007626592,-0.042754834,-0.906678935,-0.021403147,0.016152211339571156,3.52411857770326E-5,Home
140,-52.32128506,12.897717752456664,19.72654571533203,-113.8815075,56.518572883605955,-8.593801889,-5.93E-06,-5.93E-05,-3.11E-05,9.937299589508946,0.42600374227588617,-0.076224759,-126,-0.002952974,6.212366437449039E-5,2.836110884124793E-4,0,0.086023256,1.143868088722229,9.93500042,0.00713262,0,160.1999969482422,-86.9154791,40.3848646,9.937299589508946,0.42600374227588617,-0.076224759,0.4378564412732726,0.012829982,0.017560076,0.8987818256165218,0.007692251,-0.042813812,-0.90649178,-0.021385584,0.015975435,-3.11E-05,Home
141,-52.29944706,12.885639743804932,19.728985595703126,-113.8596695,56.50466480255127,-8.591727829,1.779166773612638E-5,-1.07E-04,2.0608681681321807E-4,9.922991761883486,0.4239826187925431,-0.076015678,-139.6666667,-0.007033218,-0.001282307,-4.03E-04,0,0.086023256,1.1538474559783936,9.93500042,0.007893834,0,160.1999969482422,-86.9154791,40.3848647,9.922991761883486,0.4239826187925431,-0.076015678,0.4379238865329224,0.012789026,0.017566245,0.8987494307814292,0.007609941,-0.042789602,-0.906643321,-0.021361862,0.015927991,2.0608681681321807E-4,Home
142,-52.38252918,12.897595806121826,19.672133808135985,-113.9427516,56.51588878631592,-8.647725849,5.930555912042127E-6,-1.78E-04,9.93368109615827E-5,9.892977177518086,0.4207534723490187,-0.074064249,-131.625,-0.015541456,-0.00267136,1.7152860471345845E-4,0,0.086023256,1.1638984680175781,9.93500042,0.006672534,0,160.1999969482422,-86.9154792,40.3848647,9.892977177518086,0.4207534723490187,-0.074064249,0.43806699236619817,0.012716465765266742,0.017549373,0.898681041,0.007487391,-0.042696875,-0.906963572,-0.021373723,0.015856824082873977,9.93368109615827E-5,Home
143,-52.37984497,12.90808780670166,19.76595167160034,-113.9399458,56.527600898742676,-8.554273834,-1.78E-05,-5.93E-05,-4.30E-05,9.885601474688603,0.41867494067320454,-0.07452262,-126.4444444,-0.004802713,-0.001285924,-4.22E-04,0,0.086023256,1.1738730669021606,9.93500042,0.002026437,0,160.1999969482422,-86.9154791,40.3848647,9.885601474688603,0.41867494067320454,-0.07452262,0.43826433321804675,0.012665141599921926,0.017424476,0.898587974,0.007495256,-0.042428938,-0.907400838,-0.021397445,0.015975435201114822,-4.30E-05,Home
144,-52.37935726,12.857213792800904,19.689701633453367,-113.9397021,56.47904476165772,-8.630401869,-5.34E-05,-5.93E-05,4.0031250710915594E-5,9.891745956198683,0.4191737444076723,-0.074482413,-128,0.002165804,5.650578193294192E-6,-4.04E-04,0,0.086023256,1.183876395225525,9.93500042,0.005209317,0,160.1999969482422,-86.915479,40.3848647,9.891745956198683,0.4191737444076723,-0.074482413,0.43834878634480595,0.012634462993411184,0.017389201,0.8985479005332132,0.007467032,-0.042339311,-0.907588767,-0.021433028,0.015975435,4.0031250710915594E-5,Home
145,-52.31725891,12.914431715011597,19.686773586273194,-113.8771156,56.53431068,-8.634061852,-2.97E-05,1.1861111824084254E-5,-1.14E-04,9.895625669979355,0.4189181987521718,-0.074947039,-108,0.002248208,6.518578066409213E-5,3.389167120155779E-4,0,0.086023256,1.1938469409942627,9.93500042,0.006291091,0,160.1999969482422,-86.915479,40.3848648,9.895625669979355,0.4189181987521718,-0.074947039,0.4382875072724611,0.012691086022526894,0.017343173780053563,0.8985778816695352,0.007612151,-0.042305691,-0.907449348,-0.021409306,0.016046602,-1.14E-04,Home
146,-52.32384697,12.862337779998779,19.719225654602052,-113.8838251,56.482216911315916,-8.599535837,-1.96E-04,-1.66E-04,-2.33E-04,9.902083989485954,0.4188252733749093,-0.073065304,-113.375,0.003932212,0.001217972,7.252541994585575E-4,0,0.086023256,1.203869342803955,10.088000297546387,0.008808262,0,160.1999969482422,-86.915479,40.3848649,9.902083989485954,0.4188252733749093,-0.073065304,0.43849760091420514,0.012590165087247937,0.017306714816000855,0.8984774952953302,0.007452746,-0.042153376,-0.90791907,-0.021575362,0.015868685262512814,-2.33E-04,Home
147,-52.32091904,12.85818974494934,19.61576971054077,-113.8807755,56.47758094787598,-8.704455795,-4.70E-05,1.5271181473508477E-4,-3.52E-05,9.941452239323588,0.4237735390084461,-0.073158229,-102.5555556,0.020500568243173454,0.003101308,-6.81E-05,0,0.086023256,1.2139760255813599,10.088000297546387,0.011010386981070042,0,160.1999969482422,-86.915479,40.384865,9.941452239323588,0.4237735390084461,-0.073158229,0.43838846253661007,0.012595782987773418,0.017423191,0.8985284154231732,0.007365777,-0.042366826,-0.907679228,-0.021426642,0.016187452585794605,-3.52E-05,Home
148,-52.35873909,12.877587738037109,19.697265644073486,-113.9183516,56.49746685028076,-8.622715826,-5.93E-06,7.116667094450552E-5,-1.93E-05,9.957275677653191,0.42591081660928076,-0.072763297,-118.625,0.008750638,9.933848982875786E-4,6.465426492459565E-4,0,0.086023256,1.2239152193069458,10.088000297546387,0.007446848,0,160.1999969482422,-86.9154791,40.384865,9.957275677653191,0.42591081660928076,-0.072763297,0.4381497846645059,0.012662882907587348,0.017563788383041772,0.8986411574974801,0.007374418,-0.042676518,-0.907149893,-0.021385584,0.016105907453784665,-1.93E-05,Home
149,-52.33421711,12.847575759887695,19.718615684509277,-113.8944398,56.468552894592285,-8.601731787,5.337500320837914E-5,7.116667094450552E-5,-1.02E-04,9.956209969752043,0.4252138765691553,-0.073994555,-121.3333333,7.000247251640246E-4,3.128847450885958E-4,-3.38E-04,0,0.086023256,1.2339081764221191,10.088000297546387,0.008293615,0,160.1999969482422,-86.9154791,40.3848651,9.956209969752043,0.4252138765691553,-0.073994555,0.43816182364537876,0.012665046433221947,0.017545125,0.8986356200523746,0.007394107,-0.042644951,-0.907176094,-0.021326278,0.016105907480910564,-1.02E-04,Home
150,-52.3966811,12.886249771118164,19.73142557144165,-113.9571477,56.50515289306641,-8.588677788,-5.93E-06,0,-5.49E-05,9.950733120001635,0.42556234615520366,-0.074830882,-123,-0.002384686,6.511607795085722E-4,3.3115881305296444E-4,0,0.086023256,1.2439079284667969,10.088000297546387,0.010848808102309704,0,160.1999969482422,-86.9154792,40.3848652,9.950733120001635,0.42556234615520366,-0.074830882,0.4380621982430949,0.012734225263945687,0.017517967,0.8986837447268291,0.007547102,-0.042655923,-0.906951459,-0.021385584,0.016034741,-5.49E-05,Home
151,-52.38740921,12.876855688095093,19.67323167800903,-113.94751,56.496002769470216,-8.64638382,5.930555912042127E-6,1.4233334188901105E-4,4.447914108416988E-6,9.946992957476274,0.4256320404774934,-0.074807651,-128.125,-0.002364409,-4.97E-05,6.162025106763376E-4,0,0.086023256,1.103447437286377,9.93500042,0.060824137181043625,0,160.1999969482422,-86.9154805,40.3848651,9.946992957476274,0.4256320404774934,-0.074807651,0.43797461124299797,0.012765986618848101,0.017554672,0.8987252637020593,0.007576223,-0.042749026,-0.906756587,-0.021373723,0.016177074079519335,4.447914108416988E-6,Home
152,-52.3593491,12.88088171005249,19.655053634643554,-113.9193275,56.501005020141605,-8.665537853,-7.71E-05,1.1861111824084254E-4,-1.62E-04,9.944384180582487,0.4257613758628185,-0.075212858,-128,-0.001375689,7.703963992665115E-4,4.457729751045264E-4,0,0.086023256,1.1133884191513062,9.93500042,0.042295083,0,160.1999969482422,-86.9154808,40.3848652,9.944384180582487,0.4257613758628185,-0.075212858,0.43800017787414847,0.012763433954090748,0.017529944590862514,0.8987133242551563,0.007592093,-0.042702538,-0.90681287,-0.021456751,0.016153352,-1.62E-04,Home
153,-52.31652695,12.85245574951172,19.693117599487305,-113.8763836,56.47416492462158,-8.625887833,-8.90E-05,5.930555912042127E-5,2.2980903989626366E-4,9.941995361476268,0.42605020467517446,-0.074412719,-125,-9.63E-04,-4.55E-05,7.40973079956851E-4,0,0.086023256,1.1234902143478394,9.93500042,0.020020114,0,160.1999969482422,-86.9154808,40.3848652,9.941995361476268,0.42605020467517446,-0.074412719,0.4379335714196696,0.012774777291252197,0.017584590621075584,0.898744551,0.007567766,-0.042810193,-0.906665834,-0.021468612,0.016094046319355664,2.2980903989626366E-4,Home
154,-52.37167099,12.88051573753357,19.631263618469237,-113.9316499,56.501981048583986,-8.688473864,4.151389138429489E-5,-2.37E-05,1.3492014643383548E-4,9.934709271180976,0.425074491,-0.075202582,-127.4444444,-0.004516676,-0.001664566,4.606491443022941E-4,0,0.086023256,1.1334314346313477,9.93500042,0.00967526,0,160.1999969482422,-86.9154808,40.3848653,9.934709271180976,0.425074491,-0.075202582,0.4378509,0.012804421,0.017619940660242896,0.8987837150258925,0.00759406,-0.042899038,-0.906481945,-0.02133814,0.016011018513982157,1.3492014643383548E-4,Home
155,-52.37057301,12.909551725387573,19.72617961883545,-113.9301857,56.52979686737061,-8.594533796,8.89583386806319E-5,2.3722223648168508E-5,4.0031251276038514E-5,9.936968571931413,0.4261198989974642,-0.075039964,-119.125,0.001396475,9.633470507501399E-5,2.6202672025532397E-4,0,0.086023256,1.143523931503296,9.93500042,0.009262078,0,160.1999969482422,-86.9154807,40.3848654,9.936968571931413,0.4261198989974642,-0.075039964,0.4379045263077449,0.012785760948018542,0.017595823601032925,0.898758329,0.007579064,-0.042839774,-0.906601169,-0.021290695,0.016058463024572263,4.0031251276038514E-5,Home
156,-52.34702728,12.84501374,19.677989692687987,-113.9072497,56.46550285339355,-8.642357845,2.3494125343859196E-5,0,2.349412254541396E-5,9.933298009113201,0.42393615957602715,-0.074505644,-119.8888889,-0.00374374,-0.001713723,8.675958244846418E-4,0,0.086023256,1.1533609628677368,9.93500042,0.010495103,0,160.1999969482422,-86.9154807,40.3848655,9.933298009113201,0.42393615957602715,-0.074505644,0.4379294010309073,0.012781112,0.017576272402388547,0.8987466520988024,0.007586657,-0.042800743,-0.906656123,-0.021356159,0.016034741,2.349412254541396E-5,Home
157,-52.38423691,12.848307762145996,19.67542764663696,-113.9444597,56.46952880859375,-8.645041866,-1.84E-04,1.1861111824084254E-4,-1.02E-04,9.894603368148063,0.4211019407776953,-0.074157174,-121.75,-0.018546475,-9.42E-04,-2.49E-05,0,0.086023256,1.163307785987854,9.93500042,0.005979649,0,160.1999969482422,-86.9154807,40.3848655,9.894603368148063,0.4211019407776953,-0.074157174,0.4381950396357231,0.012677944617942699,0.017479196715268118,0.898620529,0.007473557,-0.042537981,-0.907247761,-0.021563501,0.016153351882997068,-1.02E-04,Home
158,-52.397169,12.866363706588745,19.724715576171874,-113.9566601,56.48831687927246,-8.595997782,-1.72E-04,8.302778276858978E-5,-1.14E-04,9.884288464,0.4182212598694181,-0.075411664,-116.4444444,-0.006738579,-0.001063418,3.392712294476704E-4,0,0.086023256,1.1733505725860596,9.93500042,0.007575763,0,160.1999969482422,-86.9154807,40.3848656,9.884288464,0.4182212598694181,-0.075411664,0.43822585581575785,0.012719316308576506,0.017356754253500875,0.8986072875921008,0.007653927,-0.042354342,-0.907311641,-0.021551639,0.016117768506835967,-1.14E-04,Home
159,-52.36569313,12.838791732788087,19.703975734710692,-113.9257941,56.458305015563965,-8.615761843,-2.08E-04,2.2536112465760082E-4,-7.86E-05,9.888795445266279,0.4181051043052118,-0.074226868,-120.125,0.001453761,4.02784463271354E-4,0.001874278,0,0.086023256,1.183361291885376,9.93500042,0.010157666,0,160.1999969482422,-86.9154808,40.3848657,9.888795445266279,0.4181051043052118,-0.074226868,0.43831169113372137,0.012706576710910474,0.017282489976547296,0.8985670353602437,0.007692115,-0.042210367,-0.907501017,-0.021587223,0.016260101902976776,-7.86E-05,Home
160,-52.36215534,12.879539699554444,19.737647666931153,-113.9224996,56.50051704406738,-8.582089815,4.151389138429489E-5,-1.19E-05,1.6309027627870006E-5,9.893906547027884,0.4183141866933952,-0.075086426,-135.2222222,0.002611382,5.000146847326779E-4,2.8518616285138916E-4,0,0.086023256,1.1933540105819702,9.93500042,0.006064994,0,160.1999969482422,-86.9154808,40.3848657,9.893906547027884,0.4183141866933952,-0.075086426,0.43836172952235325,0.012671843388126892,0.017296111,0.8985428567071563,0.007615338,-0.042204826,-0.90761384,-0.021338139,0.016022879684579026,1.6309027627870006E-5,Home
161,-52.35910507,12.879539785385132,19.723983535766603,-113.9190838,56.50002883911133,-8.595997829,1.779166773612638E-5,2.3722223648168508E-5,-6.67E-05,9.900533969585712,0.418951037,-0.073119138,-132.1111111,0.003576982,3.473072954751913E-4,9.405670090786462E-4,0,0.086023256,1.2033662796020508,10.098999977111816,0.002331947,0,160.1999969482422,-86.9154808,40.3848657,9.900533969585712,0.418951037,-0.073119138,0.43839811121375816,0.012622721475160237,0.017355731805985413,0.8985246495135779,0.007472958,-0.042269245,-0.90769798,-0.021361862,0.016058462988404396,-6.67E-05,Home
162,-52.31542896,12.892959775924682,19.724837589263917,-113.8751638,56.513082847595214,-8.594899836,-4.15E-05,0,-5.49E-05,9.937598627,0.42298367532711584,-0.074482413,-134.75,0.020409778483863016,0.002433728,-2.71E-04,0,0.086023256,1.2134209871292114,10.098999977111816,0.005705452,0,160.1999969482422,-86.9154808,40.3848658,9.937598627,0.42298367532711584,-0.074482413,0.4383268911861679,0.012643681233296695,0.017395714,0.8985583163002162,0.00747894,-0.042358923,-0.907539936,-0.021421167,0.016034741,-5.49E-05,Home
163,-52.29151714,12.857701778411865,19.683235569000246,-113.851252,56.47867881774902,-8.638453817,-2.97E-05,-7.12E-05,1.6309025932501242E-5,9.957089869,0.42533003531613395,-0.075132889,-129.7777778,0.010317673,0.00111325,-2.64E-04,0,0.086023256,1.223365306854248,10.098999977111816,0.008742673,0,160.1999969482422,-86.9154808,40.3848659,9.957089869,0.42533003531613395,-0.075132889,0.4381007659203798,0.012720832510769945,0.017500570387516207,0.8986654686696322,0.007536435,-0.042613226,-0.907037224,-0.021409306,0.015963574120937622,1.6309025932501242E-5,Home
164,-52.34324505,12.860629777908326,19.670913677215577,-113.903224,56.481362915039064,-8.647847853,-1.13E-04,2.965277956021064E-4,-1.73E-04,9.955878915138616,0.42553911567891683,-0.075388433,-120.875,6.583315654865746E-4,0.001057769,6.432054401601402E-4,0,0.086023256,1.2333447933197021,10.076000213623047,0.005306768,0,160.1999969482422,-86.9154808,40.3848659,9.955878915138616,0.42553911567891683,-0.075388433,0.43805356453923344,0.012756335892651266,0.017481992581804977,0.8986883360205344,0.007618832,-0.042610531,-0.906930546,-0.021492334,0.016331268546795383,-1.73E-04,Home
165,-52.36642502,12.85818977355957,19.692751598358154,-113.9262817,56.477458992004394,-8.627473812,-1.88E-04,1.9970006542280316E-4,2.34941242244811E-5,9.950294698326333,0.4262825169609588,-0.074319793,-115.1111111,-0.002456555,4.963720074066749E-4,0.001897922,0,0.086023256,1.2433384656906128,10.076000213623047,0.007389021,0,160.1999969482422,-86.9154808,40.384866,9.950294698326333,0.4262825169609588,-0.074319793,0.4379351371182845,0.012799119746957261,0.017531956492278438,0.8987444713711739,0.007657626,-0.042736875,-0.906667079,-0.021567606,0.016234440809617248,2.34941242244811E-5,Home
166,-52.35129723,12.87234175682068,19.604545688629152,-113.9110313,56.49258678436279,-8.716289873,6.52361150324634E-5,1.8977778918534806E-4,-1.14E-04,9.947045234,0.4254461914590261,-0.075853059,-110.375,-0.001857063,-8.26E-05,6.884593625091812E-4,0,0.086023256,1.102907419204712,9.93500042,0.07217475,0,160.1999969482422,-86.9154822,40.3848654,9.947045234,0.4254461914590261,-0.075853059,0.43791744112968445,0.012812545920893984,0.017524744194109463,0.8987530469894409,0.007688943,-0.042735516,-0.90662708,-0.021314417,0.016224518562983542,-1.14E-04,Home
167,-52.31957706,12.839523782730103,19.698851680755617,-113.8800434,56.459646949768064,-8.620275879,-1.01E-04,2.1350001283351657E-4,-3.11E-05,9.943397947885458,0.4247957152649037,-0.076457072,-122.2222222,-0.002035863,1.3292182996435073E-4,7.692582688285309E-4,0,0.086023256,1.112884521484375,9.93500042,0.051313482224941254,0,160.1999969482422,-86.9154826,40.3848653,9.943397947885458,0.4247957152649037,-0.076457072,0.43792925558043916,0.012829055,0.017476403977251746,0.8987479898536089,0.007760458,-0.042663142,-0.906651502,-0.021480473,0.016248240768547775,-3.11E-05,Home
168,-52.35568905,12.848551702499389,19.619551601409913,-113.9154234,56.46745487213135,-8.700551853,2.9652779560210635E-5,-4.74E-05,8.747569913749845E-5,9.943903210093675,0.42663098567897834,-0.076201528,-108,1.5721737759784586E-5,4.640962313679816E-4,7.378768935365584E-4,0,0.086023256,1.1228851079940796,9.93500042,0.022803048,0,160.1999969482422,-86.9154826,40.3848653,9.943903210093675,0.42663098567897834,-0.076201528,0.4378268351253954,0.012849180000716621,0.017554821374202237,0.8987960774921676,0.007732808,-0.042820925,-0.906425166,-0.021350001,0.015987296,8.747569913749845E-5,Home
169,-52.31323296,12.88893370628357,19.69275173187256,-113.8736995,56.506494674682614,-8.62783988,-2.97E-05,1.6605556553717955E-4,-3.11E-05,9.940473704662137,0.4259108160305949,-0.075179351,-109,-0.001665504,-6.44E-04,0.001168156,0,0.086023256,1.1328489780426025,9.93500042,0.009268425,0,160.1999969482422,-86.9154826,40.3848655,9.940473704662137,0.4259108160305949,-0.075179351,0.4378268906792391,0.012833106430988866,0.017588307918275443,0.8987956255385019,0.007674538,-0.042867074,-0.906426724,-0.021409306,0.016200796,-3.11E-05,Home
170,-52.34068314,12.886615810394288,19.67676975250244,-113.9005394,56.505274810791015,-8.642601862,-2.97E-05,1.1861111824084254E-4,4.447915803785753E-6,9.939920599644001,0.425945439,-0.075465945,-120.5555556,-4.47E-04,4.164345056107901E-4,9.549469189736449E-4,0,0.086023256,1.1428899765014648,9.93500042,0.004631669,0,160.1999969482422,-86.9154825,40.3848655,9.939920599644001,0.425945439,-0.075465945,0.4378891451266205,0.012821023822626442,0.017540321115729878,0.89876641,0.007691889,-0.042770716,-0.90656429,-0.021409306,0.016153351873955103,4.447915803785753E-6,Home
171,-52.40107307,12.84269576072693,19.745089607238768,-113.9611734,56.46196483612061,-8.57574584,1.1268056232880041E-4,1.0675000641675828E-4,-4.30E-05,9.933559352911791,0.42454017,-0.074923807,-111.75,-0.004809722,-2.81E-04,0.001410545,0,0.086023256,1.1527844667434692,9.93500042,0.002191334,0,160.1999969482422,-86.9154825,40.3848655,9.933559352911791,0.42454017,-0.074923807,0.4379392182364047,0.012800470690776422,0.017524338,0.8987426109684323,0.00766654,-0.042724391,-0.906675905,-0.021266973,0.016141491,-4.30E-05,Home
172,-52.39058117,12.863557748794555,19.699095573425293,-113.9509258,56.483071174621585,-8.62125186,6.52361150324634E-5,-2.25E-04,7.561458674829128E-5,9.893511503645517,0.4204050024736275,-0.075411664,-126.6666667,-0.019534546,-0.0024481,-0.00104076,0,0.086023256,1.1627815961837769,9.93500042,0.006989653,0,160.1999969482422,-86.9154826,40.3848656,9.893511503645517,0.4204050024736275,-0.075411664,0.4381278900845537,0.012701461118763512,0.017509085641613284,0.8986523533330381,0.007492835,-0.042611785,-0.90709843,-0.021314417,0.015809379662703543,7.561458674829128E-5,Home
173,-52.33446087,12.835863752365112,19.764243659973143,-113.8940741,56.45610885620117,-8.556591797,-2.97E-05,-9.49E-05,-1.93E-05,9.883405685424805,0.4174778600340908,-0.07678231,-106.125,-0.006533928,-0.001880356,-0.001229689,0,0.086023256,1.1728154420852661,9.93500042,0.004601767,0,160.1999969482422,-86.9154826,40.3848656,9.883405685424805,0.4174778600340908,-0.07678231,0.4382227575316012,0.01271746,0.017364262196334822,0.8986086816463655,0.007644148,-0.042366188,-0.907305009,-0.021409306,0.015939851906331418,-1.93E-05,Home
174,-52.33299675,12.874781761169434,19.807675704956054,-113.8932197,56.49514865875244,-8.513037786,-2.35E-04,1.9970006542280316E-4,-7.05E-05,9.887912620618506,0.4185000362905484,-0.075643977,-93.77777778,0.001440067,2.8690552482238185E-4,0.001159347,0,0.086023256,1.1827958822250366,9.93500042,0.006918449,0,160.1999969482422,-86.9154826,40.3848657,9.887912620618506,0.4185000362905484,-0.075643977,0.438230074,0.012747378195994176,0.017293293,0.8986060573504522,0.007759868,-0.042264866,-0.907318409,-0.021614595,0.016234440818572275,-7.05E-05,Home
175,-52.384603,12.81731976,19.758997631072997,-113.9448259,56.43805278778076,-8.561349773,-2.08E-04,-1.19E-05,-9.04E-05,9.893883269967384,0.4173849349461713,-0.075736902,-111.25,0.002728166,3.363843103056972E-5,4.44706457043157E-4,0,0.086023256,1.1927911043167114,9.93500042,0.005397709,0,160.1999969482422,-86.9154825,40.3848657,9.893883269967384,0.4173849349461713,-0.075736902,0.4383475899117664,0.012698293446554142,0.017257593,0.8985501174787873,0.007697375,-0.042158641,-0.90758049,-0.021587223,0.01602288,-9.04E-05,Home
176,-52.32860512,12.851967763900756,19.703731632232667,-113.8884617,56.472944793701174,-8.616005831,-1.84E-04,4.7444447296337016E-5,-1.38E-04,9.901479934025737,0.4188949674078562,-0.074923807,-117.8888889,0.004786834,0.001769063,9.780242605116761E-4,0,0.086023256,1.202789068222046,10.11400032043457,0.003033563,0,160.1999969482422,-86.9154825,40.3848657,9.901479934025737,0.4188949674078562,-0.074923807,0.43840198696238325,0.012674550733809332,0.017243201075827035,0.898524194,0.007664746,-0.04211241,-0.907701894,-0.021563501,0.016082185193968628,-1.38E-04,Home
177,-52.40656315,12.848795795440674,19.73301166534424,-113.9670296,56.468431091308595,-8.586725826,-2.67E-04,2.1350001283351657E-4,-2.21E-04,9.931927311,0.42205442300120605,-0.073553161,-96.5,0.016638903941922974,0.002584205,0.001473968,0,0.086023256,1.2128220796585083,10.11400032043457,0.005738328,0,160.1999969482422,-86.9154825,40.3848658,9.931927311,0.42205442300120605,-0.073553161,0.4383444849727223,0.012661836200475115,0.017337214292108435,0.8985506168846945,0.007562086,-0.042269806,-0.907576899,-0.021646528,0.016248241,-2.21E-04,Home
178,-52.36191113,12.864533748626709,19.69458164215088,-113.922256,56.48404682159424,-8.625277815,-8.90E-05,1.1861111824084254E-4,-3.11E-05,9.955292331362234,0.424702791,-0.074157174,-141.4444444,0.011588596603245412,0.001854565,9.414848410388798E-4,0,0.086023256,1.222877025604248,10.11400032043457,0.003797589,0,160.1999969482422,-86.9154825,40.3848658,9.955292331362234,0.424702791,-0.074157174,0.43818738448967054,0.012700507905587409,0.017441160362033012,0.8986246776812284,0.007547875,-0.042489302,-0.907228952,-0.021575362,0.016153351873955103,-1.38E-04,Home
179,-52.30176502,12.846599731445313,19.625041732788088,-113.8618657,56.46672317504883,-8.694207897,5.189236310012277E-5,2.3722223648168508E-5,1.2157639619686361E-4,9.954501885634203,0.4256233297861539,-0.074729692,-112.125,0.001246499,8.722511888707725E-4,-1.37E-05,0,0.086023256,1.2329113483428955,10.11400032043457,0.006781641,0,160.1999969482422,-86.9154825,40.3848659,9.954501885634203,0.4256233297861539,-0.074729692,0.4380981919256229,0.012711679246457457,0.017522680220528712,0.8986664211865768,0.007500703,-0.04264494,-0.907032393,-0.021480473,0.016058463,-3.11E-05,Home
180,-52.34312317,12.83757176399231,19.786325531005858,-113.9035895,56.458060874938965,-8.533899841,2.0608681794346393E-4,5.930555912042127E-5,1.9274306714136912E-4,9.951238493,0.42509772187297784,-0.07569044,-100.7777778,-0.001568137,-8.52E-04,-6.52E-04,0,0.086023256,1.2428662776947021,10.11400032043457,0.004194346,0,160.1999969482422,-86.9154825,40.3848659,9.951238493,0.42509772187297784,-0.07569044,0.43799134394497546,0.012749438,0.017569525131178133,0.898717053,0.007532631,-0.042761379,-0.906794766,-0.021326278,0.016094046256061898,4.0031251841161433E-5,Home
181,-52.33202103,12.86587577,19.768269691467285,-113.8916338,56.487340774536136,-8.551711817,6.375347548932994E-5,1.4233334188901105E-4,1.2157639732710945E-4,9.947071334690724,0.425004798,-0.075574283,-92.375,-0.002309031,-3.10E-04,2.716732328956567E-4,0,0.086023256,1.102177619934082,9.93500042,0.071647145,0,160.1999969482422,-86.915484,40.3848656,9.947071334690724,0.425004798,-0.075574283,0.437971258,0.012779854436956563,0.017529688956378735,0.8987271860965247,0.007623235,-0.042716223,-0.906747993,-0.021468612,0.016177074,-3.11E-05,Home
182,-52.35617691,12.849527778625488,19.743991641998292,-113.9157897,56.470626792907716,-8.576477842,5.1892364230368614E-5,3.558333547225276E-5,2.1646529078953763E-4,9.929270087,0.42379676948473294,-0.07497027,-96.66666667,-0.008374631,-0.001168327,4.2650939046757894E-4,0,0.086023256,1.1121803522109985,9.93500042,0.049540113657712936,0,160.1999969482422,-86.9154844,40.3848656,9.929270087,0.42379676948473294,-0.07497027,0.4379922631874825,0.012763496,0.01753912,0.8987170012251845,0.007584537,-0.042719027,-0.906795512,-0.021480473,0.016070324095707494,6.375347492420703E-5,Home
183,-52.3982671,12.82329779624939,19.696289653778077,-113.9582455,56.44342109680176,-8.623447809,2.2319419076666236E-4,3.5241188015788794E-5,1.7620594007894397E-4,9.939477596468139,0.4245634021110905,-0.075992447,-100,0.004127126,-8.56E-04,-4.94E-04,0,0.086023256,1.122205138206482,9.93500042,0.023521872237324715,0,160.1999969482422,-86.9154844,40.3848656,9.939477596468139,0.4245634021110905,-0.075992447,0.43794233867755306,0.012778573230696985,0.017566359,0.898740584,0.007590158,-0.042780803,-0.906684714,-0.021309171,0.016069982,2.34941242244811E-5,Home
184,-52.34275715,12.858677711486816,19.68055170059204,-113.9034677,56.47867893218994,-8.639307861,1.3492014643383548E-4,2.2536112465760082E-4,1.4826389780105317E-5,9.941672991780402,0.42505125686960316,-0.076805541,-106.8888889,0.001210592,7.161634060943011E-4,-2.65E-05,0,0.086023256,1.1321673393249512,9.93500042,0.00873244,0,160.1999969482422,-86.9154844,40.3848656,9.941672991780402,0.42505125686960316,-0.076805541,0.4379625647392088,0.012808701086753202,0.017479717080454225,0.8987319828237145,0.007719355,-0.042651551,-0.906726349,-0.021397445,0.016260102,-1.38E-04,Home
185,-52.38777515,12.855627765655518,19.72386167526245,-113.9473878,56.474896926879886,-8.596607819,5.189236310012277E-5,1.541944537130953E-4,2.2832640261362188E-4,9.936358701835559,0.4253068033931325,-0.075643978,-113.625,-0.003931055,-5.57E-04,0.001339113,0,0.086023256,1.1421750783920288,9.93500042,0.005516432,0,160.1999969482422,-86.9154843,40.3848657,9.936358701835559,0.4253068033931325,-0.075643978,0.43783399491634184,0.012849204395942896,0.017546349,0.8987927517844635,0.007739935,-0.042805768,-0.906440856,-0.021480473,0.016188935,7.56145873134142E-5,Home
186,-52.38240715,12.857457723617554,19.685553646087648,-113.9429958,56.47721508026123,-8.634305887,2.06086817378341E-4,-1.19E-05,2.1646529078953763E-4,9.926482293212299,0.423727076,-0.075481358,-127.2222222,-0.003770634,-0.001228204,9.734335454922278E-5,0,0.086023256,1.1520708799362183,9.93500042,0.008718249,0,160.1999969482422,-86.9154843,40.3848658,9.926482293212299,0.423727076,-0.075481358,0.4379502453850311,0.012780885,0.017552237,0.898736974,0.007606323,-0.042757498,-0.906701837,-0.021326278,0.01602288,6.37534743590841E-5,Home
187,-52.37667286,12.83659574508667,19.68945759,-113.93653,56.45671890258789,-8.628205833,6.375347548932994E-5,-1.19E-05,1.2157639619686361E-4,9.897646653999402,0.4212645601879046,-0.074621801,-104.8888889,-0.016286841,-0.002264867,7.503069575550487E-4,0,0.086023256,1.1621825695037842,9.93500042,0.006465759,0,160.1999969482422,-86.9154844,40.3848658,9.897646653999402,0.4212645601879046,-0.074621801,0.43801059248377977,0.012762219283404281,0.017520235543980182,0.8987084517201174,0.00759793,-0.042684098,-0.906835812,-0.021468612,0.016022879630327225,-3.11E-05,Home
188,-52.3935091,12.835131759643554,19.749481658935547,-113.95361,56.455620765686035,-8.570865812,1.9422570555425675E-4,-7.12E-05,9.785417367894094E-5,9.885624454571651,0.41849087837796944,-0.074522621,-123.125,-0.006537123,-0.001911259,-7.97E-04,0,0.086023256,1.1720874309539795,9.93500042,0.007870347,0,160.1999969482422,-86.9154844,40.3848659,9.885624454571651,0.41849087837796944,-0.074522621,0.4382721243552791,0.012648314933826043,0.017450396,0.8985839081042021,0.007441885,-0.042460856,-0.907419433,-0.02133814,0.015963574111895654,-5.49E-05,Home
189,-52.41790901,12.84196373,19.751799602508544,-113.9780099,56.46184288024902,-8.567449827,1.6309026497624162E-5,0,8.599306072461085E-5,9.887471273107437,0.41894143154320207,-0.073437004,-135.5555556,3.995802796002731E-4,2.5454857974376493E-4,2.6513513141465417E-4,0,0.086023256,1.182131052017212,9.93500042,0.006690622,0,160.1999969482422,-86.9154845,40.3848659,9.887471273107437,0.41894143154320207,-0.073437004,0.43838092800482964,0.0126216,0.017378246375513308,0.8985326093377419,0.007451993,-0.042308598,-0.907660398,-0.021516056,0.016034741,-6.67E-05,Home
190,-52.35959328,12.846599712371827,19.703731651306153,-113.9192059,56.46574687957764,-8.617225828,1.2305903460975122E-4,4.7444447296337016E-5,1.5715973166911636E-4,9.894649913010088,0.41798894787297664,-0.072182515,-138.625,0.002991686,-9.50E-04,7.41232909913202E-4,0,0.086023256,1.1921414136886597,9.93500042,0.003681463,0,160.1999969482422,-86.9154845,40.3848659,9.894649913010088,0.41798894787297664,-0.072182515,0.4384144512773718,0.012592448084389122,0.017399611,0.898516248,0.007379234,-0.04232172,-0.907736509,-0.021409306,0.016082185,4.447915238662831E-6,Home
191,-52.42388706,12.856115703582764,19.707513732910158,-113.9836221,56.47697090148926,-8.613565865,4.0031251841161433E-5,-4.74E-05,2.2832640261362188E-4,9.899551780478468,0.4184535724445454,-0.075574283,-115.5555556,0.003312629,-3.29E-04,-0.001805671,0,0.086023256,1.2021276950836182,10.123000144958496,0.005483187,0,160.1999969482422,-86.9154845,40.384866,9.899551780478468,0.4184535724445454,-0.075574283,0.4384025913997761,0.012615071528238578,0.017366400567217936,0.8985223584962123,0.007449628,-0.042281749,-0.907708493,-0.021492334,0.015987296299375956,7.561458674829128E-5,Home
192,-52.3425132,12.84928370475769,19.74691967010498,-113.9031018,56.469773063659666,-8.573061838,2.1144712809473276E-4,4.698825068771839E-5,2.2319419188604044E-4,9.937970383653363,0.4232159881915861,-0.074133943,-119.125,0.020426044097313516,0.001308164,-1.03E-04,0,0.086023256,1.2121676206588745,10.095999717712402,0.006363395,0,160.1999969482422,-86.9154846,40.384866,9.937970383653363,0.4232159881915861,-0.074133943,0.4382343034331615,0.012661682,0.01746697,0.8986018414680774,0.007453178,-0.042502067,-0.907335306,-0.021320918,0.016081729,7.048237491219949E-5,Home
193,-52.33751106,12.878075761795044,19.68616367340088,-113.8979775,56.498076820373534,-8.634183855,-3.11E-05,-2.37E-05,1.3343750802094785E-4,9.956761768,0.42486540785113586,-0.073622855,-131.3333333,0.00993737,5.806921755225913E-4,3.8683211919173454E-4,0,0.086023256,1.2221741676330566,10.123000144958496,0.003816483,0,160.1999969482422,-86.9154846,40.384866,9.956761768,0.42486540785113586,-0.073622855,0.43815543177058397,0.012678339733805472,0.017524923080379524,0.8986389457600789,0.00743604,-0.042620225,-0.907160886,-0.021563501,0.016011018541108056,-1.93E-05,Home
194,-52.32201675,12.860873756408692,19.729961585998534,-113.8821176,56.47989902496338,-8.589165816,2.0608681681321807E-4,1.779166773612638E-4,1.571597327993622E-4,9.954519873683893,0.42498156486205685,-0.073971324,-164.75,5.76621120415845E-4,-3.37E-04,-1.06E-04,0,0.086023256,1.2322604656219482,10.123000144958496,0.001674657,0,160.1999969482422,-86.9154846,40.384866,9.954519873683893,0.42498156486205685,-0.073971324,0.4381121116355785,0.012684605735381252,0.017562774,0.8986592362227949,0.007416175,-0.042693423,-0.90706535,-0.021326278,0.016212657446638475,4.447915238662831E-6,Home
195,-52.34958931,12.83134973526001,19.701779594421385,-113.9094457,56.45074093,-8.617469797,-1.93E-05,1.6605556553717955E-4,1.5715973166911636E-4,9.948958869119293,0.4254229583786529,-0.073855168,-166.2222222,-0.002833922,-7.15E-04,6.420928080683773E-4,0,0.086023256,1.2421261072158813,10.095999717712402,5.807786947116256E-4,0,160.1999969482422,-86.9154846,40.384866,9.948958869119293,0.4254229583786529,-0.073855168,0.43800462420704295,0.012731673422007306,0.017590974,0.8987104146225938,0.007481236,-0.042784498,-0.906825478,-0.021551639,0.016200796,4.4479163689086735E-6,Home
196,-52.34214691,12.842817764282227,19.781567649841307,-113.902858,56.46367282867432,-8.537193813,2.8170140582200103E-5,1.779166773612638E-4,9.78541725486951E-5,9.943958338024547,0.4250512597630325,-0.074528875,-156.5555556,-0.002544116,-1.84E-04,8.869789974782073E-4,0,0.086023256,1.1020094156265259,9.93500042,0.024575438,0,160.1999969482422,-86.915485,40.3848657,9.943958338024547,0.4250512597630325,-0.074528875,0.4379985827265434,0.012759851002432768,0.017539293007943237,0.8987139712259608,0.007577527,-0.042716197,-0.906809692,-0.021504195,0.016212657446638475,-5.49E-05,Home
197,-52.35544529,12.851113729476928,19.648465709686278,-113.9150575,56.470139007568356,-8.671759863,2.53531264674678E-4,4.7444447296337016E-5,2.6390973808587464E-4,9.940639550869282,0.425163172,-0.075327897,-117.625,-0.001749826,-1.58E-04,-1.12E-04,0,0.086023256,1.112102985,9.93500042,0.017222328,0,160.1999969482422,-86.9154851,40.3848657,9.940639550869282,0.425163172,-0.075327897,0.43798782119473206,0.012755918271333268,0.017560152572046205,0.8987188599642041,0.007552677,-0.042750174,-0.906786452,-0.021278834,0.016082185,1.1119792278566696E-4,Home
198,-52.37496529,12.879295749664307,19.658469638824464,-113.9349434,56.50002914428711,-8.660779819,2.53531264674678E-4,1.6605556553717955E-4,1.097152855030252E-4,9.942340887865974,0.4246795591220115,-0.07534197,-133.7777778,4.2716276298448877E-4,-9.62E-04,5.3909652441450694E-5,0,0.086023256,1.1221017837524414,9.93500042,0.006451602,0,160.1999969482422,-86.9154851,40.3848658,9.942340887865974,0.4246795591220115,-0.07534197,0.43795530252086307,0.012773912065454479,0.017560842,0.8987344399239253,0.007585992,-0.042766907,-0.906713551,-0.021278834,0.016200796,-4.30E-05,Home
199,-52.34788128,12.85452974319458,19.79010768890381,-113.9079815,56.47550682067871,-8.529995785,2.1794792920242526E-4,1.1861111824084254E-5,9.78541725486951E-5,9.941580087235831,0.42544619116968324,-0.074575338,-132.25,-4.32E-04,-2.76E-04,6.182508778224871E-4,0,0.086023256,1.1321043968200684,9.93500042,0.002909639,0,160.1999969482422,-86.9154851,40.3848658,9.941580087235831,0.42544619116968324,-0.074575338,0.43796429500996487,0.012760672329481944,0.017577890939648868,0.898729912,0.007546798,-0.042786042,-0.906734451,-0.021314417,0.016046601853975394,-5.49E-05,Home
200,-52.38850704,12.843793773651123,19.70031566619873,-113.9490958,56.46379486083984,-8.62015379,1.705034813409653E-4,1.1861111824084254E-5,1.4529862097527796E-4,9.937456418009637,0.4245866343234349,-0.075643977,-138,-0.002600031,-6.88E-04,-5.88E-04,0,0.086023256,1.1420716047286987,9.93500042,0.001350949,0,160.1999969482422,-86.9154851,40.3848658,9.937456418009637,0.4245866343234349,-0.075643977,0.437983977,0.012759702659926368,0.017556773028472094,0.8987207476375172,0.00756263,-0.04274738,-0.906777692,-0.021361862,0.016046602,-7.41E-06,Home
201,-52.36849922,12.85452977180481,19.65627368927002,-113.9279892,56.47367671966553,-8.663341799,1.9970006542280316E-4,1.0572356404736638E-4,1.2921768939122558E-4,9.930995033782663,0.42460986653577937,-0.076015678,-143.625,-0.003073096,-1.93E-04,-2.44E-04,0,0.086023256,1.152021884918213,9.93500042,5.745968664996326E-4,0,160.1999969482422,-86.9154851,40.3848658,9.930995033782663,0.42460986653577937,-0.076015678,0.4379665980545374,0.012779803758558746,0.017535267,0.8987293484119269,0.007618475,-0.042726167,-0.906737787,-0.021332665,0.016140464,-2.35E-05,Home
202,-52.42705925,12.84806378364563,19.617233657836913,-113.9866718,56.46757675170898,-8.701771812,9.933681152670563E-5,8.302778276858978E-5,1.571597327993622E-4,9.896949703253588,0.42019592095347286,-0.075574283,-134.1111111,-0.018159616,-0.002912635,7.216753528534787E-4,0,0.086023256,1.1620762348175049,9.93500042,0.006481722,0,160.1999969482422,-86.9154852,40.3848659,9.896949703253588,0.42019592095347286,-0.075574283,0.43799126206092465,0.01279291,0.017478935384345286,0.8987182372982062,0.007690275,-0.042636557,-0.906790682,-0.021433028,0.016117768561087764,4.447915238662831E-6,Home
203,-52.32714085,12.844769792556763,19.67737964630127,-113.8873638,56.46342887878418,-8.642967815,9.933681152670563E-5,-4.74E-05,1.097152855030252E-4,9.885240925168528,0.4185929622464967,-0.075458127,-131.75,-0.006622176,-0.001297406,-3.15E-04,0,0.086023256,1.1720385551452637,9.93500042,0.004491182,0,160.1999969482422,-86.9154852,40.3848659,9.885240925168528,0.4185929622464967,-0.075458127,0.43821947493599456,0.012703925759974614,0.017396328,0.8986098517491979,0.007591827,-0.042411952,-0.907299016,-0.021433028,0.015987296326501855,-4.30E-05,Home
204,-52.39765713,12.833057794570923,19.622601680755615,-113.9573919,56.45342491149902,-8.697989893,1.7050348247121117E-4,2.3722223648168508E-5,2.668750160418957E-5,9.887564149875086,0.41787279230877034,-0.074389487,-129.1111111,3.889139416148362E-4,-7.33E-04,5.048320637744607E-4,0,0.086023256,1.1820266246795654,9.93500042,0.002133591,0,160.1999969482422,-86.9154852,40.3848659,9.887564149875086,0.41787279230877034,-0.074389487,0.438315105,0.012672038685566591,0.017350456487495922,0.8985645470109959,0.007570204,-0.042302314,-0.907511565,-0.021361862,0.016058463015530294,-1.26E-04,Home
205,-52.44291935,12.81866177558899,19.66749777,-114.0031416,56.43744285583496,-8.652361879,9.933681039645979E-5,-5.93E-05,7.41319489005266E-5,9.894766048320289,0.4179424874990889,-0.074180406,-130.1111111,0.003327564,1.5111918588286464E-4,-5.05E-04,0,0.086023256,1.1920702457427979,9.93500042,7.854728610254824E-4,0,160.1999969482422,-86.9154852,40.3848659,9.894766048320289,0.4179424874990889,-0.074180406,0.4384663515877955,0.012596149684734714,0.01733095,0.8984922008606994,0.007443704,-0.042201948,-0.907849997,-0.021433028,0.015975435,-7.86E-05,Home
206,-52.38216309,12.821955766677856,19.693727760314943,-113.9421416,56.442078857421876,-8.625765848,2.1794792863730233E-4,-1.90E-04,9.78541725486951E-5,9.898647335859446,0.4184908772317263,-0.073878399,-120.375,0.002430092,3.684388781056821E-4,-7.27E-04,0,0.086023256,1.2022359371185303,10.135000228881836,0.006032818,0,160.1999969482422,-86.9154853,40.384866,9.898647335859446,0.4184908772317263,-0.073878399,0.43849301309261507,0.012573990654381155,0.017345794937709002,0.8984792093628818,0.007389567,-0.042209417,-0.907910438,-0.021314417,0.015844963011738745,-5.49E-05,Home
207,-52.3859449,12.843549814224243,19.70897762298584,-113.9459242,56.46391696929932,-8.610515881,5.189236366524569E-5,9.488889459267403E-5,2.668750160418957E-5,9.934166241618035,0.422635204,-0.073437005,-140.1111111,0.019657061,0.002312679,-1.70E-04,0,0.086023256,1.2121092081069946,10.135000228881836,0.005757571,0,160.1999969482422,-86.9154853,40.384866,9.934166241618035,0.422635204,-0.073437005,0.4383851116143384,0.012600209265585664,0.017417905834114667,0.8985300989984308,0.007378525,-0.042361181,-0.907671479,-0.021480473,0.016129629695516765,-1.26E-04,Home
208,-52.35605522,12.843793725967407,19.65676160812378,-113.9162778,56.46403884887695,-8.663585844,5.189236310012277E-5,1.4233334188901105E-4,1.097152855030252E-4,9.955399837308716,0.4257946613344174,-0.073622855,-130.5,0.010563933733597543,0.001678526,3.237866805595102E-4,0,0.086023256,1.2221378087997437,10.135000228881836,0.003131089,0,160.1999969482422,-86.9154853,40.384866,9.955399837308716,0.4257946613344174,-0.073622855,0.43816229845713645,0.012677058586579503,0.017519525677255055,0.8986357161142293,0.00743815,-0.042609452,-0.907176054,-0.021480473,0.016177074106645237,-4.30E-05,Home
209,-52.33238701,12.83610776901245,19.682625675201415,-113.8922437,56.45586502075195,-8.636867819,4.0031251841161433E-5,4.7444447296337016E-5,7.413195003077243E-5,9.954127830209083,0.4253997290597379,-0.074947038,-131.6666667,0.001026265,6.386927030618909E-5,-3.48E-04,0,0.086023256,1.2320986986160278,10.135000228881836,0.006103217,0,160.1999969482422,-86.9154853,40.3848661,9.954127830209083,0.4253997290597379,-0.074947038,0.43807157671567304,0.012714165,0.017548780797899347,0.8986788542525282,0.007483549,-0.042693834,-0.906973823,-0.021492334,0.016082185,-7.86E-05,Home
210,-52.40253712,12.823175792694093,19.70556179046631,-113.9625156,56.442689170837404,-8.614663858,1.5271181417539573E-4,4.698825068771839E-5,1.7620594119832205E-4,9.949815564942591,0.4247260223893286,-0.074459181,-134.875,-0.001826662,-5.76E-04,2.755155930152306E-4,0,0.086023256,1.2421424388885498,10.135000228881836,0.003878973,0,160.1999969482422,-86.9154853,40.3848661,9.949815564942591,0.4247260223893286,-0.074459181,0.438045428,0.012728346914697725,0.017549941,0.8986913756682322,0.007509287,-0.04270813,-0.906915218,-0.021379653,0.016081729035179775,2.3494123105103008E-5,Home
