seconds_elapsed,microphone_dBFS,gyroscope_z,gyroscope_y,gyroscope_x,magnetometerUncalibrated_z,magnetometerUncalibrated_y,magnetometerUncalibrated_x,magnetometer_z,magnetometer_y,magnetometer_x,totalAcceleration_z,totalAcceleration_y,totalAcceleration_x,orientation_qz,orientation_qy,orientation_qx,orientation_qw,orientation_roll,orientation_pitch,orientation_yaw,accelerometer_z,accelerometer_y,accelerometer_x,location_bearingAccuracy,location_speedAccuracy,location_verticalAccuracy,location_horizontalAccuracy,location_speed,location_bearing,location_altitude,location_longitude,location_latitude,accelerometerUncalibrated_z,accelerometerUncalibrated_y,accelerometerUncalibrated_x,gyroscopeUncalibrated_z,gyroscopeUncalibrated_y,gyroscopeUncalibrated_x,class
0,-89.63636364,0.13799110548787338,0.033589495822440744,0.094010103,-83.17614995,23.577030057492465,-45.11506877,-24.23343219,-30.25998314,-16.31388943,10.035443208655533,1.5163536857509492,0.5721715085151396,-0.943137764,-0.101846653,-0.003710052,0.28723599883012996,-0.067939635,-0.194645839,2.5385605429494102,-0.259016148,-0.499631178,-0.154776416,45,1.5,2.1908376216888428,24.893999099731445,0,0,155,-86.9109957,40.4278613,10.033729553222656,1.5010020403677355,0.538996306,0.11645874004204605,0.049943866294830344,0.094059825,Campus
1,-46.75,-0.009662356,0.12643055613853435,-0.122722476,-85.51370262,23.32676546096802,-44.08799339,-26.65187544,-30.4327774,-15.34869772,10.135212652891585,0.8816070420785075,0.1451403734102411,-0.961664726,-0.053038084,0.013718234894891016,0.26569627138596136,-0.002968572,-0.108776961,2.6015897746225005,0.19628016925552516,-0.168365943,0.1282321464957543,45,1.5,2.1908376216888428,24.893999099731445,0,0,155,-86.9109957,40.4278613,10.135212652891585,0.8816070420785075,0.1451403734102411,-0.031194726,0.14280037261382902,-0.122691341,Campus
2,-56.22222222,-0.010031992,0.012334417874136796,0.08278155,-87.32149857,23.414361553192137,-43.55314499,-28.46162355,-30.34444941,-14.8128737,9.614846326772449,0.8836601073627622,-0.577846341,-0.955764325,-0.044840818,0.044868091,0.28497892962052274,0.060980483710479275,-0.110924308,2.5657928127508898,-0.209728883,-0.243493885,0.019688915,45,1.5,2.1908376216888428,24.893999099731445,0,0,155,-86.9109957,40.4278613,9.614846326772449,0.8836601073627622,-0.577846341,-0.031564357,0.028711289,0.082810918,Campus
3,-45.125,-0.108002837,-0.056610121,0.03735509,-86.63597992,21.68915958404541,-42.17710728,-27.77598343,-32.07062737,-13.43744575,9.631767426,1.2052537294339787,-0.833323714,-0.963585157,-0.065670809,0.051265482,0.2496572850109304,0.067159356,-0.15298268,2.6397058523974373,-0.180671715,-0.311310005,-0.172239147,45,1.5,2.1908376216888428,24.893999099731445,0,0,155,-86.9109957,40.4278613,9.631767426,1.2052537294339787,-0.833323714,-0.129535203,-0.040255129,0.037398086126681274,Campus
4,-47.77777778,0.14002487077875045,0.00561327,-0.031925663,-88.52295425,25.106257572174073,-43.78677513,-29.66259136,-28.65340738,-15.04674765,9.794188985546816,0.8282651105179063,-0.310401952,-0.960201482,-0.045722601,0.028743135,0.2724187999095732,0.030609430832272955,-0.103605798,2.5902310089000222,-0.079767426,-0.199320725,-0.00822617,45,1.5,2.229417562484741,33.323001861572266,0.5518558621406555,212.1203155517578,155,-86.9110336,40.4278154,9.794188985546816,0.8282651105179063,-0.310401952,0.11849250771032954,0.021977157729849654,-0.031896012,Campus
5,-69.25,-0.162860478,-0.030213215,0.032076894531695585,-90.63928749,26.469973487854006,-44.30930119,-31.78026758,-27.28981359,-15.56939572,9.955797417649945,0.874167225,-0.311720323,-0.958938777,-0.047539704,0.026187982,0.2742287578802664,0.025118217023668215,-0.105456124,2.586237379648153,0.086857189,-0.171119388,-0.064308969,45,0.366990328,2.2393717765808105,35.290000915527344,1.072288990020752,146.9347686767578,155,-86.9110442,40.4277695,9.955797417649945,0.874167225,-0.311720323,-0.184392845,-0.013859708,0.032143612527876224,Campus
6,-60.66666667,0.10520064772911442,-0.041629538,0.062500645,-90.68345238,23.654091548919677,-44.34943916,-31.82247927,-30.10581734,-15.60941168,9.721558107779575,1.3051783511775563,-0.076501301,-0.960942219,-0.077808994,0.016957241384305727,0.26253760106933927,-0.008314795,-0.158353478,2.6075485308193467,-0.090606569,-0.272652139,-0.159649539,45,0.23405355215072632,2.2494513988494873,29.441999435424805,1.0732539892196655,155.7430877685547,155,-86.9109912,40.4277453,9.721558107779575,1.3051783511775563,-0.076501301,0.083668285,-0.02528196,0.062531781,Campus
7,-53.625,-0.048365166,-0.067237679,-0.05332311,-90.84546799,24.96546947479248,-46.53311699,-31.98461731,-28.79590336,-17.7926017,9.735358678021477,1.5212108569888814,0.4173965538779581,-0.953678224,-0.080658807,-0.001205909,0.28641691471187813,-0.048715685,-0.153554963,2.554557878994247,-0.030496338,0.007239424,-0.057001082,45,0.20499415695667267,2.259383201599121,24.18199920654297,1.1479369401931763,158.16839599609375,155,-86.9109684,40.4277178,9.735358678021477,1.5212108569888814,0.4173965538779581,-0.069897532,-0.050888618,-0.053290493,Campus
8,-39.22222222,0.11555539750611608,0.020012661299297532,0.021769588,-91.7858445,26.46277547836304,-47.03502495,-32.92511536,-27.29652351,-18.29389971,9.725096184073143,1.4129646707380425,0.4180266946481848,-0.946549846,-0.078623256,0.001892096,0.3097267768626074,-0.045433417,-0.150492745,2.5058033859845503,-0.061752671,-0.069803004,-0.034638291,45,0.24014869332313538,2.269371509552002,20.743000030517578,1.1625916957855225,154.04605102539062,155,-86.910955,40.4276885,9.725096184073143,1.4129646707380425,0.4180266946481848,0.094023031,0.036361721,0.021802205848394558,Campus
9,-31.11111111,-0.072988835,8.332426196362064E-4,-0.056063029,-92.03472435,26.720927448272704,-47.28854115,-33.17497139,-27.03763945,-18.54753756,9.804419461963246,1.5528402632301292,0.4534050424592298,-0.945401543,-0.081071015,0.003468978,0.31233703974381233,-0.044358857,-0.156006197,2.4999872110422374,0.038413533886659496,0.017439846853608068,0.025508897975810522,45,0.24014869332313538,2.269371509552002,20.743000030517578,1.1625916957855225,154.04605102539062,155,-86.910955,40.4276885,9.804419461963246,1.5528402632301292,0.4534050424592298,-0.094521201,0.017180820493009483,-0.056036341,Campus
10,-35.875,-0.147571506,-0.00344862,-0.134761504,-91.85684845,27.774885387420653,-47.61049919,-32.99697344,-25.98660946,-18.87083759,9.861818146937102,0.870244039,0.5823328840564393,-0.963868616,-0.04852384,-0.0236115,0.25619243403661596,-0.072086275,-0.080940876,2.618936853501403,0.022508927,0.071261624,-0.1161644,45,0.22543498873710632,2.4083685874938965,11.947999954223633,1.244579553604126,137.8251190185547,161,-86.9109095,40.4276551,9.861818146937102,0.870244039,0.5823328840564393,-0.169103872,0.012901923135465499,-0.134752608,Campus
11,-49.77777778,0.085330664,0.032598099,0.053355159605136857,-94.05675201,31.59653543,-45.11840523,-35.19712132,-22.16386147,-16.37874372,10.026809687753326,0.12282962363791987,0.10177046646481579,-0.967180586,-0.014491297,-9.01E-04,0.25090934622746247,-0.008628373,-0.02743998,2.6340147027602563,0.11524415474671584,-0.134900351,0.006008513,45,0.21424464881420135,2.418469190597534,8.928999900817871,1.2634623050689697,137.24986267089844,161,-86.9108753,40.427644,10.026809687753326,0.12282962363791987,0.10177046646481579,0.063798297,0.048954416,0.053413895,Campus
12,-41.375,-0.136694866,-0.032674398,-0.007112219,-94.87915474,32.37208946228027,-43.59645519,-36.02013336,-21.38806351,-14.85654973,9.821302793558361,0.5254452652071865,0.4332170550919418,-0.966553906,-0.025063147,-0.003245173,0.25030938340622244,-0.018764901,-0.046730681,2.634450393973045,-0.081512951,0.062085515,0.24774956652551022,45,0.2169588804244995,2.4284143447875977,7.249000072479248,1.249446153640747,138.13328552246094,161,-86.9108575,40.4276347,9.821302793558361,0.5254452652071865,0.4332170550919418,-0.15822723,-0.016323855,-0.007081084,Campus
13,-40.22222222,-0.030288832,0.033700384027821925,-0.005439803,-96.88849403,30.933831272125243,-41.13083511,-38.02837532,-22.82607765,-12.39117373,9.889852491397303,0.3814954925249376,-0.067457851,-0.976383248,-0.016449535,-0.001869234,0.21053035976817308,-0.00991295,-0.031194965,2.7167137108960198,-0.009196693,0.073162996,-0.165360751,45,0.2084418386220932,2.4383223056793213,6.079999923706055,1.2825466394424438,135.26132202148438,161,-86.9108461,40.4276247,9.889852491397303,0.3814954925249376,-0.067457851,-0.051821198,0.050056857337781854,-0.005381979,Campus
14,-35.5,0.025422812,-0.004978702,0.017511449,-97.56559418,28.988785495758055,-41.12888325,-38.70620716,-24.76953756,-12.38946582,10.010873030690314,0.2658588502158239,0.11586314347545498,-0.977508445,-0.021903722,-0.00254677,0.20642379128817215,-0.013986452,-0.041349625,2.7249937566738685,0.099922708,-0.143269893,-0.022585158,45,0.2099577933549881,1.623313307762146,5.487999916,1.296040415763855,139.7225799560547,155.79998779296875,-86.9108355,40.4276156,10.010873030690314,0.2658588502158239,0.11586314347545498,0.003890444,0.011380737,0.017597443647953927,Campus
15,-34.77777778,-0.11221353,0.012682494314080014,-0.029873693,-98.18230415,28.107335453033446,-39.81799324,-39.32194134,-25.65269552,-11.07735577,10.021669767435315,0.42668035127294873,0.057593270855982905,-0.978100518,-0.021325505,0.011108640093103197,0.20051643968496508,0.012702808,-0.046093288,2.7374488011147213,0.10460088322463545,-0.030990516,0.18372185625931592,45,0.2099577933549881,1.623313307762146,5.487999916,1.296040415763855,139.7225799560547,155.79998779296875,-86.9108355,40.4276156,10.021669767435315,0.42668035127294873,0.057593270855982905,-0.133745897,0.029030070857153933,-0.029827731,Campus
16,-36.375,0.027083364803597187,0.012670632,0.089354203,-97.75664619,24.591173477172852,-38.36802334,-38.89725922,-29.16861349,-9.627141809,9.954211235046387,0.5838285917147564,-0.108223457,-0.987716149,-0.038778068,0.005728691,0.14601193491405653,0.001002927,-0.078029597,2.8482748929736683,0.03493228,-0.200715368,-0.100780225,45,0.2208651602268219,1.6432896852493286,4.310999870300293,1.344089150428772,138.81320190429688,155.79998779296875,-86.9108208,40.4275963,9.954211235046387,0.5838285917147564,-0.108223457,0.005551,0.029030071,0.089409061,Campus
17,-49.44444444,-0.015118468,-0.097530957,-0.022970525,-96.00728806,22.59293560028076,-40.64405502,-37.14680317,-31.16709539,-11.90353976,9.751263387,1.2609187991389987,0.27589186759285844,-0.980965356,-0.067109474,-0.007328263,0.17748528133028918,-0.038807849,-0.129733126,2.780916660734751,-0.10294311,-0.020830342,-0.10864484,45,0.33574074506759644,1.6532732248306274,4.585000038146973,1.7210040092468262,140.2304688,155.79998779296875,-86.9108044,40.4275856,9.751263387,1.2609187991389987,0.27589186759285844,-0.036650835,-0.081183381,-0.022936425,Campus
18,-47.375,0.12059637211552522,0.002932661,-0.064804666,-96.71684036,26.270381660461425,-42.51992722,-37.85733128,-27.48916155,-13.78002178,9.774602108,0.5806979795520022,0.3240997008075124,-0.98217664,-0.034985129,-0.032982628,0.17973174256028482,-0.077301954,-0.056620062,2.7775513686022713,-0.078614272,0.011415789428266506,-0.435223697,45,0.269767165,1.6632786989212036,5.067999839782715,1.3503168821334839,144.40811157226562,155.79998779296875,-86.9107947,40.4275725,9.774602108,0.5806979795520022,0.3240997008075124,0.099064005,0.019287650889346322,-0.064773531,Campus
19,-29.44444444,0.050864896,0.033320829,0.076923758,-98.33407234,29.861329383850098,-43.49031517,-39.47383121,-23.89955551,-14.74979975,9.842498418196891,0.6499823921369118,0.22345014386674733,-0.956724154,-0.037839695,0.003563393,0.28467220661130926,-0.014809488,-0.074479657,2.5626589464909824,-0.040888254,-0.094718755,0.081772864,45,0.26973775029182434,1.6732603311538696,5.520999908447266,1.3456089496612549,143.9946746826172,155.79998779296875,-86.9107797,40.427564,9.842498418196891,0.6499823921369118,0.22345014386674733,0.02933253,0.049675818559831206,0.076978615,Campus
20,-32,0.045776479,-0.10406643,-0.03923211,-97.47604599,26.515845432281495,-43.47677307,-38.61543945,-27.24528343,-14.7372337,9.864539109387444,1.1064626770365296,0.4705032697399554,-0.960746497,-0.065430223,-0.004953595,0.26712620721279995,-0.044594319,-0.123247744,2.5964355445602565,0.065297368,-0.102232322,0.022906276858547358,45,0.274559885,1.683307409286499,6.015999794006348,1.3587062358856201,129.7473602294922,155.79998779296875,-86.9107648,40.42755,9.864539109387444,1.1064626770365296,0.4705032697399554,0.024244114051310762,-0.087720336,-0.039192079,Campus
21,-75.77777778,-0.13013396,-0.004945514,-0.01159435,-97.98210182,28.503469467163086,-45.08753914,-39.1219833,-25.25619551,-16.34836567,9.956201062619108,0.7357319842942638,0.9712217365463888,-0.965290711,-0.048301902,-0.034048228,0.2512592359517629,-0.090327952,-0.076139982,2.6287708351245294,0.07497368,-0.00946141,0.074360183,45,0.274559885,1.683307409286499,6.015999794006348,1.3587062358856201,129.7473602294922,155.79998779296875,-86.9107648,40.42755,9.956201062619108,0.7357319842942638,0.9712217365463888,-0.151666327,0.011409334363774039,-0.011537083,Campus
22,-77.125,-0.069881223,-0.011205786,0.038161645,-97.69479195,23.61895555496216,-42.4125671,-38.83552765,-30.1407093,-13.67302773,9.870982929340844,1.1180173420862665,0.6210710573082482,-0.977711114,-0.069257205,-0.026059997,0.19280312926445192,-0.077670287,-0.125613042,2.7473922516535785,0.056903158576743114,-0.125347661,-0.142665715,45,0.28141990303993225,1.7032649517059326,6.482999801635742,1.2602951526641846,141.8531494140625,155.79998779296875,-86.9107483,40.4275323,9.870982929340844,1.1180173420862665,0.6210710573082482,-0.091413588,0.005138827,0.038201677,Campus
23,-70.55555556,0.13084437311129662,0.12352458350993331,-0.208169925,-99.80051216,28.508349418640137,-42.3049633,-40.93953911,-25.25216955,-13.56456975,9.928820105432306,0.6049659711498658,0.3989770411289392,-0.971115794,-0.025637263,-0.0152229,0.2297802029304134,-0.039854915,-0.042773077,2.6756647628487893,0.062377749,0.18298522730186148,0.006017901,45,0.22912880778312683,1.7132810354232788,6.113999843597412,1.234348177909851,151.85983276367188,155.79998779296875,-86.9107407,40.427523,9.928820105432306,0.6049659711498658,0.3989770411289392,0.10931200767388043,0.13988402115126836,-0.208158064,Campus
24,-68.375,0.028293198716569042,-0.054676761,0.071301591,-102.3432359,32.69599946975708,-40.99663506,-43.48409332,-21.06354359,-12.25660777,9.944602845941933,0.081367587,0.079050267,-0.970061064,0.003706543,-0.002355902,0.2400751696917617,-0.003288665,0.009000309,2.6559758348372378,0.035060845532463594,0.17050363311489808,0.046353563,45,0.22471150755882263,2.5146090984344482,5.317999839782715,1.2126471996307373,161.7811737060547,155.79998779296875,-86.9107372,40.4275103,9.944602845941933,0.081367587,0.079050267,0.006760833,-0.038326217,0.071357931,Campus
25,-59.44444444,0.00130917,-0.001550839,0.022386366,-101.7531219,29.640387496948243,-41.49280922,-42.8925153,-24.11891157,-12.75314774,9.769150000352125,0.3733493552941721,0.11106493281057248,-0.96710573,-0.021942143,-8.31E-04,0.25150701664026504,-0.012499783,-0.041931308,2.632429808088877,-0.112868573,-0.052370355,-0.014408248,45,0.23774534463882446,2.5247421264648438,5.020999908447266,1.1900216341018677,165.8448486328125,155.79998779296875,-86.9107373,40.4275006,9.769150000352125,0.3733493552941721,0.11106493281057248,-0.020223195,0.014804151,0.022448637,Campus
26,-68.375,-0.068540917,0.052891663,0.014368255394940419,-101.9766258,28.933885440826415,-40.22205708,-43.117239,-24.82577948,-11.48239579,9.838531739503434,0.4399454121294802,-0.01294273,-0.9703363,-0.021072185,0.009147695,0.2385932509470912,0.008045846,-0.045111683,2.6595443082087247,-0.078239358,-0.01149837,0.073732225,45,0.21409760415554047,2.5347836017608643,4.605999946594238,1.2513580322265625,168.69956970214844,155.79998779296875,-86.9107365,40.4274876,9.838531739503434,0.4399454121294802,-0.01294273,-0.090073284,0.069265928,0.014405321093045573,Campus
27,-58.77777778,-0.04585061,-0.035082203,-0.029055277,-102.8577098,29.31940544128418,-38.71401516,-43.99734711,-24.44050358,-9.974841762,10.000160467277453,0.29024589821262264,-0.242717589,-0.9786212,-0.00657498,0.007803544,0.20388950306235007,0.012791579227569034,-0.015910176,2.730783323639805,0.065707517,0.13536966136358317,-0.116646532,45,0.21409760415554047,2.5347836017608643,4.605999946594238,1.2513580322265625,168.69956970214844,155.79998779296875,-86.9107365,40.4274876,10.000160467277453,0.29024589821262264,-0.242717589,-0.067382976,-0.018722765,-0.029009314,Campus
28,-62.75,-0.149445562,0.07950948,0.025164830968579622,-102.95287,27.77488534927368,-37.62174919,-44.09311733,-25.98368147,-8.881721816,9.882325542783274,0.1386298118430434,-0.258825585,-0.985988437,-0.008606944,0.011893435868276939,0.1597432472462793,0.021513863011756097,-0.01967173,2.820805095931859,-0.078736398,-0.047426428,-0.028582323,45,0.22091540694236755,2.5546391010284424,3.878999948501587,1.238131046295166,175.3577880859375,155.79998779296875,-86.9107343,40.4274627,9.882325542783274,0.1386298118430434,-0.258825585,-0.170977925,0.095880781,0.025197448887075615,Campus
29,-47.77777778,0.018412894,-0.04422712,-0.022472359,-102.5647881,25.22374361038208,-35.79089531,-43.70418137,-28.53628746,-7.050013869,10.223058894999976,0.3569051787456118,-0.102859428,-0.991024678,-0.017780769,0.019549743776453785,0.12684870974242107,0.034206153761207815,-0.039990025,2.887362954685989,0.28459289698924833,-0.036074832,0.2180397877994093,45,0.20332849025726318,2.574639081954956,3.990999937057495,1.2959158420562744,177.82508850097656,155.79998779296875,-86.9107295,40.4274503,10.223058894999976,0.3569051787456118,-0.102859428,-0.003119472,-0.027870648,-0.022417502,Campus
30,-48.125,0.014860037,-0.025115221,-0.006014496,-102.5411196,26.30698143005371,-35.75124519,-43.68136715,-27.45341541,-7.010241895,9.837268515,0.095605462,-0.251998489,-0.989315337,-0.009647252,0.018487755203610644,0.14212259994103357,0.033911654,-0.024062616,2.8566399698074045,-0.064297383,-0.142115538,0.086212562,45,0.22553658485412598,2.5846171379089355,4.041999816894531,1.339097023010254,178.2215576171875,155.79998779296875,-86.9107225,40.4274394,9.837268515,0.095605462,-0.251998489,-0.006672331,-0.008775055,-0.00598366,Campus
31,-32.88888889,-0.189725894,-0.029519343,-0.003221774,-102.9383521,25.90743143081665,-33.13007538,-44.07835506,-27.85284336,-4.389681935,9.940005950557376,0.051445683952674126,-0.305503052,-0.647265619,0.002711773,0.003459574,0.061343501,0.017951268,-0.009381285,1.863879062597034,0.008939234,-0.040832676,-0.12712463,45,0.2174506038427353,2.594597101211548,4.112999916,1.3552134037017822,172.70956420898438,155.79998779296875,-86.9107133,40.4274263,9.940005950557376,0.051445683952674126,-0.305503052,-0.211258261,-0.013173248,-0.003178777,Campus
32,-27.44444444,0.007998836,0.07595263,-0.008345775,-103.5649438,25.582667503356934,-32.93145933,-44.70506912,-28.17760742,-4.192529907,10.204979095644164,-0.04440951,-0.079526502,-0.999291056,2.7138350383961775E-4,-0.002628307,0.023927650984051158,-0.005153049,0.001172344,3.093652100238985,0.2886897290794595,-0.032425817,-0.130248647,45,0.20610246062278748,3.6884899139404297,4.171999931335449,1.3917388916015625,175.44276428222656,155.79998779296875,-86.9107057,40.4274115,10.204979095644164,-0.04440951,-0.079526502,-0.013533529,0.092315032,-0.008299814,Campus
33,-30.5,-0.068066471,-0.037656065,-0.001881469,-104.4121122,25.628295516967775,-30.32578348,-45.55113911,-28.13075947,-1.586243973,9.90384357,-0.172608469,-0.197834742,-0.203331764,0.003085687,-9.68E-04,0.038538474206432916,0.041569083006781284,0.005476405,0.6086344904112584,-0.01859133,-0.118466922,0.21495768225308762,45,0.20469282567501068,3.6985318660736084,4.201000213623047,1.3150818347930908,177.03720092773438,155.79998779296875,-86.9106997,40.4273998,9.90384357,-0.172608469,-0.197834742,-0.089598838,-0.021308487,-0.001842921,Campus
34,-20.11111111,-0.080615529,0.035503274,0.001665002,-103.433794,21.781879539489747,-27.57358541,-44.57294308,-31.97790728,1.1665639769658447,10.014563893808901,0.3202810527765852,-0.646669028,0.41472057347158786,0.024869815,-0.022760192,0.04808099,0.061804606,-0.043116561,-1.224016092,0.1191603512439913,-0.107381329,-0.035274208,45,0.21123406291007996,3.7084193229675293,4.183000087738037,1.2589824199676514,174.05215454101562,155.79998779296875,-86.9106926,40.4273872,10.014563893808901,0.3202810527765852,-0.646669028,-0.102147895,0.05187902,0.001733203,Campus
35,-23.625,-0.071790862,-0.045259039,-0.079239639,-103.5894659,21.87130558013916,-26.57635746,-44.72922523,-31.88860334,2.1641579522565006,9.903884277893948,0.350281051,-0.668770921,0.9967086714448281,0.019259529725424673,-0.028119141,0.065344228,0.058695469,-0.034498103,-3.009764225,6.310314808077026E-4,0.010714235,-0.080541914,45,0.18299324810504913,3.7184388637542725,4.086999893188477,1.3214741945266724,175.4991455078125,155.79998779296875,-86.9106859,40.4273716,9.903884277893948,0.350281051,-0.668770921,-0.093323229,-0.028904047,-0.079192196,Campus
36,-20.55555556,-0.049610583,-0.070926484,0.02563631,-103.9227699,22.815463485717775,-27.05532949,-45.06252903,-30.94310356,1.684453962240368,9.625439778114986,0.10918995904401668,-0.056939889,0.9933787746336854,0.012374539332774732,-0.003797261,0.10802328789118425,0.010773525,-0.023597311,-2.924752048,-0.28374371,-0.118036158,0.03837795,45,0.19220051169395447,3.7284021377563477,3.934999942779541,1.3243000507354736,175.16156005859375,155.79998779296875,-86.91068,40.4273572,9.625439778114986,0.10918995904401668,-0.056939889,-0.071142948,-0.054562597,0.025692650234525643,Campus
37,-47.875,-0.039018608,-0.071228941,-0.019934081,-104.5703459,25.75773756027222,-28.3907415,-45.70998314,-28.0024155,0.3489199998229742,9.884067882611914,-0.125135333,0.20477509060512902,0.9913699557480303,-0.010868047,0.013630812273405152,0.12453344645141398,-0.029558936,0.018651413274092546,-2.891271503,0.006984609,0.046637958,-0.09663618,45,0.22259606420993805,4.279929161071777,3.819999933242798,1.3254287242889404,177.32981872558594,156.1999969482422,-86.9106762,40.4273384,9.884067882611914,-0.125135333,0.20477509060512902,-0.060550975,-0.054878398,-0.019899981,Campus
38,-43.44444444,-0.045601527,0.024473922259346085,0.086199148,-105.2213381,25.395519542694093,-28.1425934,-46.36024296,-28.36390146,0.5975559855252505,9.831806266192094,-0.202556503,0.2175755286589265,0.9877570624490386,-0.007065643,0.013430369174581482,0.1500909018863752,-0.02812054,0.010960213562532427,-2.83956299,-0.104153138,-0.097155433,-0.060730305,45,0.22259606420993805,4.279929161071777,3.819999933242798,1.3254287242889404,177.32981872558594,156.1999969482422,-86.9106762,40.4273384,9.831806266192094,-0.202556503,0.2175755286589265,-0.067133893,0.040840774,0.086270314,Campus
39,-32.5,-0.017692332,0.025338301,-0.010587524,-103.775394,23.785851554870604,-27.49233343,-44.91466518,-29.97430141,1.2479379788041114,9.893842511964076,0.06611334,0.042568430399467935,0.9908571943496037,0.002722332,0.004328252,0.13218711331052688,-0.007948305,-0.006027467,-2.876545684,-0.056813601,0.007253182,-0.036411205,45,0.21852411329746246,4.299926280975342,3.680999994277954,1.3090864419937134,173.3372039794922,156.1999969482422,-86.9106645,40.4273169,9.893842511964076,0.06611334,0.042568430399467935,-0.039224696,0.041696257,-0.010556389,Campus
40,-41.88888889,0.047458133,0.037097223031406217,-0.010313922,-103.7203722,25.845089473724364,-25.44248957,-44.86086292,-27.91555149,3.296927934642881,9.887119955229528,-0.02622522,-0.158838119,0.9890255893652256,-0.001215574,-0.005024917,0.14372909878595516,0.009747334,0.003814338,-2.853297623,-0.081695006,0.024386887510235492,-0.051852688,45,0.21852411329746246,4.299926280975342,3.680999994277954,1.3090864419937134,173.3372039794922,156.1999969482422,-86.9106645,40.4273169,9.887119955229528,-0.02622522,-0.158838119,0.025925767,0.053449134,-0.010278679,Campus
41,-51.125,0.038078617,-0.029626092,-0.019317303,-105.3389461,28.903263549804688,-25.18750948,-46.47858322,-24.85603558,3.552273930311203,9.906907165,-0.126215585,-0.188510283,0.9941925400669135,-0.006648596,-0.010035539,0.10319920506292177,0.018779909997744468,0.015650919,-2.934829726,-0.020549774,0.029623276110991692,-0.002072553,45,0.19997550547122955,4.3199663162231445,3.5769999027252197,1.281893253326416,165.5903778076172,156.1999969482422,-86.9106488,40.4272917,9.906907165,-0.126215585,-0.188510283,0.016546250745943448,-0.013285927,-0.019289132,Campus
42,-36,-0.143657339,-0.026079621,0.041518339,-109.2130557,29.067231426239015,-25.74346338,-50.35342533,-24.69340948,2.997783928513527,9.84799261,-0.219071042,-0.096897699,0.9921320190707457,-0.005981127,-7.73E-04,0.12159215926545337,-6.42E-05,0.012059303533480259,-2.897664922,-0.079865479,-0.098819271,-0.097317826,45,0.2158578634262085,3.4258053302764893,3.5339999198913574,1.2907649278640747,160.69845581054688,161,-86.9106425,40.4272809,9.84799261,-0.219071042,-0.096897699,-0.165189704,-0.009726111,0.041562818,Campus
43,-36.25,0.061243368,0.006846827,0.025173728,-110.6298418,24.414883556365968,-27.66447544,-51.77094318,-29.34539146,1.0750639779120683,9.922800295561263,0.3226767811580624,0.051933538,0.9891527202522871,0.013265415377071743,0.011622069093276684,0.14370708710070954,-0.019301892,-0.029465994,-2.853365282,-0.009336772,0.030102903,-0.139588428,45,0.2219390571117401,3.4357104301452637,3.496000051498413,1.2960848808288574,161.48223876953125,161,-86.9106381,40.4272714,9.922800295561263,0.3226767811580624,0.051933538,0.039711003,0.023200334786681584,0.025207827810889778,Campus
44,-46.55555556,-0.024227805,0.002363326,-0.038876277,-111.0888058,23.421315479278565,-29.44591944,-52.22917507,-30.33908127,-0.705769987,9.988704510105466,0.44822737265794166,0.4049329629204082,0.9910325703111668,0.017668832972208073,0.021547171350532364,0.12865579779286987,-0.037889599,-0.040546577,-2.884102025,0.067220387,0.045179735,0.029105919585065934,45,0.2219390571117401,3.4357104301452637,3.496000051498413,1.2960848808288574,161.48223876953125,161,-86.9106381,40.4272714,9.988704510105466,0.44822737265794166,0.4049329629204082,-0.045760168,0.018710903864629674,-0.03885552,Campus
45,-37,-0.082252363,-0.028902564,0.025280478496321486,-111.2802238,19.986405601501463,-26.11361149,-52.41925087,-33.7746014,2.6255619401484727,9.942477226257324,0.2194753332206836,0.2303753316653176,0.9868967718291051,0.010653670435061437,0.011284065660591083,0.15851713188932937,-0.018912408,-0.024382483,-2.8232857,0.004591502,-0.03016445,0.033512287999241094,45,0.20735418796539307,3.4456944465637207,3.552000045776367,1.3188705444335938,163.4921417236328,161,-86.9106317,40.4272482,9.942477226257324,0.2194753332206836,0.2303753316653176,-0.103784728,-0.012549056,0.025332369837114243,Campus
46,-32.25,0.076473036,0.020392216714912828,-0.025686718,-106.2983541,20.522473573684692,-31.08840538,-47.43823509,-33.23706926,-2.348621962,9.902740098897693,0.12474620619503944,6.7080827192539E-4,0.9865894751641356,0.007783465,0.008657997,0.15804656341816614,-0.014117184,-0.017583975,-2.82410552,-0.039277632,-0.040007244,-0.132401325,45,0.2993549406528473,3.4557597637176514,4.208000183105469,1.3660629987716675,172.44447326660156,161,-86.9106218,40.4272424,9.902740098897693,0.12474620619503944,6.7080827192539E-4,0.054940669,0.036764998,-0.025662996,Campus
47,-28.11111111,0.011284364916913175,-0.001965979,0.008959587,-108.0730879,27.004577445983887,-32.71991127,-49.2138229,-26.7544775,-3.980127921,9.991460374258097,0.057599075,0.16824098920576203,0.9939334323105303,0.001827282,0.009448139,0.10703485176979917,-0.018220471,-0.005505954,-2.92707293,0.055985154457462646,0.00228937,-0.016336789,45,0.44034862518310547,3.475818634033203,5.052999973297119,1.5262213945388794,174.20802307128906,161,-86.9106099,40.4272339,9.991460374258097,0.057599075,0.16824098920576203,-0.010248,0.014386045751026243,0.008999619,Campus
48,-30.75,-0.056205361,-0.017871729,-0.030609082,-110.8894576,24.433915481567382,-28.62302944,-52.02958305,-29.32623741,0.11553399048745633,10.01867288756139,0.15255115607536388,0.15245241938086534,0.99375589,0.007167078,0.004981838,0.10929420337225627,-0.008261155,-0.015188617,-2.922496525,0.086743734,0.003723972,0.074894844,45,0.41504549980163574,3.4858062267303467,5.664999961853027,1.4956965446472168,172.1639862060547,161,-86.9106064,40.4272197,10.01867288756139,0.15255115607536388,0.15245241938086534,-0.077737727,-0.001516739,-0.030567569,Campus
49,-32.44444444,-0.145946533,0.020510828380192657,-0.035578887,-109.8170779,20.268225536346435,-26.71153347,-50.95683701,-33.49131752,2.028859957642853,9.912497233418586,-0.075307122,0.16841231652923172,0.9889344804495284,-0.005624302,0.004739719,0.14660659389009753,-0.011178435,0.009813174,-2.847202271,-0.024121405,0.025807797981118694,0.061716347,45,0.4093775749206543,3.4957756996154785,6.270999908447266,1.6058306694030762,171.63699340820312,161,-86.9106017,40.4272036,9.912497233418586,-0.075307122,0.16841231652923172,-0.167478899,0.036864335689404344,-0.035546269,Campus
50,-32.875,0.082076728,-0.007776556,0.067522116,-107.421852,20.81502965927124,-27.60420744,-48.56258682,-32.94402548,1.1364299887418747,9.973116361,-0.019839523,-0.091737452,0.9851735251454207,-0.00711285,-0.001531082,0.16710528717018092,4.325339849366663E-4,0.015048881270698845,-2.805639595,0.063845378,0.1263773046577206,-0.087055065,45,0.40758946537971497,3.505798578262329,6.671999931335449,1.5781080722808838,171.68328857421875,161,-86.9105971,40.4271859,9.973116361,-0.019839523,-0.091737452,0.060544361190225646,0.00858123,0.067576447,Campus
51,-39.66666667,0.018602670574994776,0.002766605,0.003432309,-102.4227799,20.805391578674318,-29.93208939,-43.56363747,-32.9546393,-1.193159972,10.173733072373473,0.30531429637729834,-0.15128215,0.9926440252841098,0.013377805744541936,-0.001655011,0.11677398554329733,0.006823023,-0.026216951,-2.907427042,0.23441582744561354,0.045201064,-0.083565381,45,0.4081189036369324,3.5158326625823975,6.625,1.6092114448547363,173.49874877929688,161,-86.9105947,40.4271675,10.173733072373473,0.30531429637729834,-0.15128215,-0.002929694,0.019118630847762545,0.00347234,Campus
52,-22.25,-0.050464583,0.012777382832300822,-0.013564663,-99.57456818,24.555183506011964,-28.0896456,-40.71420502,-29.20496944,0.6508699862658978,9.939642980260757,0.21242980376898662,-0.126305607,0.9933779025540769,0.016345858,0.002406498,0.11194602768976712,-0.001000918,-0.032936065,-2.917293067,-0.008982482,-0.114807726,-0.136097126,45,0.4162590801715851,3.525738239,6.7170000076293945,1.5918651819229126,171.98341369628906,161,-86.9105941,40.4271496,9.939642980260757,0.21242980376898662,-0.126305607,-0.071996949,0.029132373,-0.013518701,Campus
53,-23.88888889,0.046618617049337015,0.046569689523962156,-0.043976555,-99.53357613,26.353585414886474,-21.86447369,-40.67382309,-27.40681143,6.875553867816925,10.102723691069965,-0.071546559,-0.441533855,0.9912514084751166,4.120699745417545E-4,-0.027600655,0.12344281281371719,0.055206977,0.00633027,-2.894225597,0.17768258955872174,-0.007798917,0.1070295449310136,45,0.4201688766479492,3.5356879234313965,6.751999855041504,1.607499599456787,175.00953674316406,161,-86.9105931,40.4271352,10.102723691069965,-0.071546559,-0.441533855,0.025086250327961537,0.062933578,-0.04393504,Campus
54,-22.55555556,0.04623906,-0.036026644,-5.29E-04,-98.09629379,25.291819496154787,-22.55926359,-39.2364193,-28.46918743,6.180275852680206,9.611212143531212,0.21209554350599108,-0.283759425,0.9945540457095915,0.015210671072036878,-0.012855875,0.09623703,0.028382711,-0.026864375,-2.948510716,-0.317581732,-0.03475857,-0.01299617,45,0.39041271805763245,3.545713424682617,6.685999870300293,1.6491702795028687,182.5374755859375,161,-86.9105937,40.4271176,9.611212143531212,0.21209554350599108,-0.283759425,0.024706697516432664,-0.019676101,-4.82E-04,Campus
55,-28.25,-0.023160302,0.028282822,-0.036029609,-100.3977024,26.98310547,-20.10047554,-41.53782715,-26.77729147,8.639917845726012,10.10764007660949,-0.295014129,-0.425536208,0.9964434197805461,-0.009100481,-0.024564997,0.078166573,0.047722055,0.021966634872052998,-2.985665766,0.1971041392354132,-0.092662701,0.062049891,45,0.41051730513572693,3.555682659,6.593999862670898,1.3017909526824951,181.1822967529297,161,-86.9105991,40.4271023,10.10764007660949,-0.295014129,-0.425536208,-0.044692669,0.044643742,-0.035995508,Campus
56,-40.55555556,-0.046135277,-0.074259456,-0.003945302,-101.9417342,25.22813554763794,-21.7100215,-43.08173695,-28.53177345,7.029151868820191,9.748522087208276,0.025946447,0.080269912,0.9966575815839674,0.00238307,0.005153611,0.073273679,-0.009785963,-0.005398153,-2.995210622,-0.194826737,-0.015945718,-0.029008071,45,0.2598057687282562,3.555682659,6.4019999504089355,1.300525426864624,177.6580352783203,161,-86.9106012,40.4270935,9.748522087208276,0.025946447,0.080269912,-0.067667643,-0.057901501,-0.003902306,Campus
57,-38.5,-0.073949584,0.045087052,-0.0228875,-105.2909997,22.718229598999024,-18.66063166,-46.42990517,-31.04131351,10.079273777008057,9.694073769652729,0.05027832,-0.04632609,0.9932616034757744,0.001964419,-0.002455446,0.11158833414026835,0.005266858,-0.003120821,-2.91801917,-0.193839536,-0.005398596,0.010600897474485694,45,0.4392559826374054,3.575674295425415,6.3470001220703125,1.493603229522705,179.8081512451172,161,-86.9106002,40.4270762,9.694073769652729,0.05027832,-0.04632609,-0.095481951,0.061450938,-0.022837088,Campus
58,-42.88888889,-0.023029831,-0.02298387,0.047235397,-106.1652518,19.30954963684082,-19.25940762,-47.30440113,-34.45206728,9.480497798919679,9.943130613530723,-0.041427195,0.033813140192295164,0.991874621,-7.25E-04,-0.003504746,0.12414710216441201,0.00666379,0.002658946,-2.892781589,0.005856384,-0.009859777,0.1068295662842908,45,0.4392559826374054,3.575674295425415,6.3470001220703125,1.493603229522705,179.8081512451172,161,-86.9106002,40.4270762,9.943130613530723,-0.041427195,0.033813140192295164,-0.044562196,-0.006636292,0.04727691,Campus
59,-53.375,3.994013957428531E-4,0.004076231,-0.023952261,-105.1181261,18.178853645324708,-21.89777956,-46.25788513,-35.58117737,6.8424918794631955,9.782288699,0.025580551059356013,-0.023963073,0.9913325584851779,-0.001426306,0.001261478,0.12669865550616613,-0.002306415,0.002911096,-2.887357347,-0.173045168,0.063884598,-0.049702185,45,0.33109015226364136,3.5856785774230957,6.46999979,1.527457356452942,183.70469665527344,161,-86.910602,40.4270449,9.782288699,0.025580551059356013,-0.023963073,-0.021132965,0.020431079991305105,-0.023900868,Campus
60,-56.33333333,0.02499581,0.003905273,3.840060010597616E-4,-104.1226062,20.283109645843506,-24.04290556,-45.26370716,-33.4765554,4.696389923095703,10.037455410633273,-0.215548601,-0.151192126,0.994369532,-0.008923587,-0.003866162,0.099018399,0.0059677,0.018889341944742732,-2.943369576,0.11739540100097656,-0.027641138,-0.092214453,45,0.33109015226364136,3.5856785774230957,6.46999979,1.527457356452942,183.70469665527344,161,-86.910602,40.4270449,10.037455410633273,-0.215548601,-0.151192126,0.003463445,0.020254331845473678,4.433110312251284E-4,Campus
61,-67.5,0.096198064,-0.053039927,0.00738206,-104.041964,20.695713577270507,-25.64708347,-45.18208908,-33.06468332,3.092577930688858,10.06303597885428,0.057346432858589785,-0.17431887,0.9951611577885823,0.00261768,0.009268229,0.093688101,-0.018187832,-0.006744431,-2.954124689,0.13686722227670614,-0.008723046,-0.354743229,45,0.32024601101875305,3.605684995651245,6.676000118255615,1.505281925201416,188.6286163330078,161,-86.9106142,40.4270168,10.06303597885428,0.057346432858589785,-0.17431887,0.074665699,-0.036692349,0.007425056,Campus
62,-71,0.2114050439332874,0.028886255,-0.043312331,-104.1522519,22.03893352508545,-28.86971344,-45.29262119,-31.72073126,-0.129929993,9.992142788414816,-0.010555715,-0.155507334,0.28123237670046614,-0.011227762,-0.002012031,0.016763476,-0.012405512,0.009198305,-0.86098077,0.065077546,0.081358897,-0.278773554,45,0.2971794009208679,3.615739583969116,6.811999797821045,1.4756965637207031,182.30453491210938,161,-86.9106179,40.427003,9.992142788414816,-0.010555715,-0.155507334,0.18987267786293355,0.045244211,-0.043260439,Campus
63,-69.88888889,0.057139421,-0.004219592,0.010667586129484246,-104.3756339,23.88198751449585,-30.21598343,-45.51636906,-29.87816551,-1.476321963,10.010057065093402,-0.284051855,-0.22222179,-0.99755733,0.010011647409264343,0.012339836960766935,0.062115189,0.025568738,0.018418688399974906,3.016986555266149,0.075939794,-0.10100387,0.031826828,45,0.3171243965625763,3.625760555267334,6.743999958,1.484533429145813,168.94378662109375,161,-86.9106157,40.4269867,10.010057065093402,-0.284051855,-0.22222179,0.035607057,0.012122056311340008,0.010713546663450384,Campus
64,-65.75,0.050698839,-0.001100117,-0.017526274,-104.0356197,23.895651550292968,-31.48844347,-45.17513519,-29.86498945,-2.748659956,9.946615728048178,-0.254300681,0.097349344,-0.997234778,0.003727726,0.002035916,0.066806776,0.004809033,0.007682958,3.0077587840626543,0.017269042,-0.167549404,0.1566868707609987,45,0.40636011958122253,3.6457221508026123,6.5370001792907715,1.472535252571106,161.32212829589844,161,-86.9106081,40.4269678,9.946615728048178,-0.254300681,0.097349344,0.029166474,0.015253390742746155,-0.017484761,Campus
65,-60.22222222,-0.116839366,-0.036446232,-0.025947666,-105.0108884,24.541153602600097,-29.43432945,-46.15125713,-29.21863348,-0.693935985,10.112004618042882,-0.320031317,-0.080455757,-0.570528019,0.007413773,0.007796877,0.052197337927335184,0.036937421,0.021034204,1.7035168907017384,0.1979967691365955,-0.101616124,0.2834007870225073,45,0.3972605764865875,3.6557788848876953,6.474999904632568,1.5219776630401611,163.31777954101562,161,-86.9106004,40.4269551,10.112004618042882,-0.320031317,-0.080455757,-0.138371731,-0.020091241,-0.025906151,Campus
66,-65.625,0.03480495,0.026370216,0.055051868,-105.0806717,22.711153507232666,-28.88337746,-46.22116322,-31.05009731,-0.143228002,9.842753993654714,0.27232876926371197,-0.273170903,-0.76644322,-7.59E-04,0.004055671,0.019533041,0.017701211163335596,-0.008512992,2.3722507745316883,-0.079436381,0.18034421612770812,-0.088373601,45,0.4071688652038574,3.6656761169433594,6.461999893188477,1.561948537826538,169.44247436523438,161,-86.910595,40.4269401,9.842753993654714,0.27232876926371197,-0.273170903,0.013272584800255819,0.042732621,0.055103760908891276,Campus
67,-57.22222222,0.036145256,0.01648991,-0.037690165,-105.5224343,21.909003467559813,-29.20423742,-46.66243713,-31.85005138,-0.46396599,9.911265993581235,-0.135502298,-0.245511157,-0.68855363,0.001332188,0.006101056,0.028832833,0.020357375554808245,0.00185169,2.109841823577881,-0.035015134,-0.104369003,-0.05066569,45,0.4193876087665558,3.6757171154022217,6.361000061035156,1.6302729845046997,170.16526794433594,161,-86.9105919,40.4269235,9.911265993581235,-0.135502298,-0.245511157,0.014612890888475677,0.032850832,-0.037656065,Campus
68,-59.875,0.090374258,-0.046255371,0.012683976242698512,-104.4520064,23.733635578155518,-30.47242746,-45.59188709,-30.0260293,-1.732399964,9.877635733595172,-0.183001565,-0.433995301,-0.997345293,0.011041494464593288,0.013028168908331104,0.066793471,0.027471248486567543,0.020494627825083954,3.007451152338565,0.033506157,0.006953839,-0.160971981,45,0.4151335656642914,3.6857070922851562,6.366000175476074,1.5496081113815308,166.6657257080078,161,-86.9105849,40.4269082,9.877635733595172,-0.183001565,-0.433995301,0.068841893,-0.029898897,0.012731420237896512,Campus
69,-60.77777778,-0.163025735,-0.035793299,0.010184703555961069,-103.246036,22.789233589172362,-31.65363138,-44.38628319,-30.97055323,-2.913725948,9.881753445,0.12322746385431406,0.34845770466185483,-0.535457851,-0.003373928,-0.001283807,0.056958469,-0.00529119,-0.016534492,1.5853380537950075,-0.089006456,-0.053661387,0.28195763314859223,45,0.4121510088443756,3.6957530975341797,6.2820000648498535,1.4881538152694702,163.0284423828125,161,-86.9105806,40.4268914,9.881753445,0.12322746385431406,0.34845770466185483,-0.184558101,-0.019444325,0.010236096371395083,Campus
70,-74.75,0.060875675,0.024851995,-0.017490691,-103.1897942,21.942919597625732,-29.72005341,-44.33113918,-31.81747728,-0.979415979,9.958579331925772,0.1553534267614912,0.083240609,-0.320287112,4.0558373608662595E-4,-0.006598559,0.018598312056409782,-0.00420609,-0.01654233,0.9960440084772203,0.025148155619797198,-0.008474728,0.041430964631941715,45,0.3859325647354126,3.705770731,6.270999908447266,1.5435866117477417,163.1828155517578,161,-86.910576,40.4268774,9.958579331925772,0.1553534267614912,0.083240609,0.039343308860852015,0.04120402,-0.017452143,Campus
71,-64.77777778,0.044151506513284824,-0.059397484,0.016550699,-100.3775723,20.623489665985108,-29.8021595,-41.5170871,-33.13617531,-1.062131976,10.062350666638716,0.12517308362407012,0.013352183,-0.998879193,-0.007976403,-0.006781237,0.039598291,-0.013946272,-0.015140074,3.0622129764371704,0.12769329663619255,-0.02485499,-0.125447765,45,0.4309732913970947,3.7156596183776855,6.263999938964844,1.5182101726531982,169.39048767089844,161,-86.9105721,40.4268648,10.062350666638716,0.12517308362407012,0.013352183,0.022619140262091622,-0.043041007,0.016604073549105414,Campus
72,-38.25,-0.146741226,-0.022782231,-0.108572169,-101.1499541,27.209049491882325,-30.75400331,-42.28983521,-26.55134752,-2.014097964,9.786145140823809,-0.416955154,0.4488894635612525,0.06818843,-0.010858815,-4.48E-04,0.060782343,-0.07304365,0.031218725360604455,-0.27976027,-0.101963733,-0.107076808,-0.274875493,45,0.4248650074005127,3.7257142066955566,6.331999778747559,1.5423781871795654,173.61549377441406,161,-86.9105724,40.4268506,9.786145140823809,-0.416955154,0.4488894635612525,-0.168273593,-0.006430205,-0.108557344,Campus
73,-49,0.5574767060794876,0.02504622,0.036465506,-102.264302,28.44405550003052,-38.37229332,-43.40381718,-25.3165855,-9.632265837,9.874061033563706,-0.224440375,0.23623896707572695,-0.983311416,0.008775542,-0.019051085,0.16456833713262983,-0.036922819,0.021734255173885563,2.8109568531073412,-0.033011807,-0.008181606,-0.129718719,45,0.44310280680656433,3.735786199569702,6.303999900817871,1.5166715383529663,175.26205444335938,161,-86.910574,40.4268382,9.874061033563706,-0.224440375,0.23623896707572695,0.5359443363019274,0.041401211,0.036533708,Campus
74,-55.625,0.21934012815274878,0.016667827343324074,0.071989535,-103.194186,34.23197948,-42.66205711,-44.33370113,-19.52792973,-13.92202971,10.087260191257183,-0.020807776,-0.223035804,-0.93534056,0.008269285,-5.38E-04,0.35194519625126736,0.004091101,0.015696410009483762,2.422034749706972,0.13770356224578562,0.1563516075822335,-0.172593686,45,0.39568808674812317,3.7458651065826416,6.301000118255615,1.3593568801879883,156.31488037109375,161,-86.9105704,40.4268274,10.087260191257183,-0.020807776,-0.223035804,0.1978077636534366,0.033022818,0.07204291,Campus
75,-58.66666667,0.19292543354914388,-0.020160926,0.056593811,-103.7463578,35.037911109924316,-44.07213326,-44.88672714,-18.72211967,-15.33283769,9.836841624917335,0.4069366568102709,-0.069865194,-0.898484801,-0.018454789,0.012453928466058943,0.4376092576286168,0.005984954,-0.043928784,2.2352803077512573,-0.104324452,-0.036273972,-0.018675885,45,0.4315001964569092,3.755856990814209,6.4120001792907715,1.4221665859222412,130.9877471923828,161,-86.9105566,40.4268191,9.836841624917335,0.4069366568102709,-0.069865194,0.17139306558675846,-0.003810383,0.056647185,Campus
76,-51.875,-0.044367971,0.002410771,-0.090306058,-103.8152879,36.691133422851564,-44.63504116,-44.95529114,-17.06853165,-15.8951357,9.970110796030285,0.1781433259580031,0.20503063340788907,-0.882399018,-0.015436376,0.013190829126967216,0.4679523249274319,0.008323784,-0.038493348,2.166336466965166,0.093178059,-0.204697778,0.2933255312512222,45,0.4156532287597656,3.765709877,6.540999889373779,1.4756921529769897,123.7061767578125,161,-86.9105358,40.426814,9.970110796030285,0.1781433259580031,0.20503063340788907,-0.065900336,0.018764277965336747,-0.090258613,Campus
77,-42.88888889,-0.036278694,0.038266912142257886,-0.043336055,-104.7434641,38.51149536132812,-43.94171524,-45.88395504,-15.24694966,-15.20180967,9.959621901651031,-0.116525238,-0.049122558,-0.898754855,0.010062606,0.003573804,0.4368680012457579,0.015017938274238597,0.015551822664367613,2.236314884667258,0.005525381,0.049767718153092465,0.097968473,45,0.3990243971347809,3.7757554054260254,6.589000225067139,1.4059661626815796,120.84524536132812,161,-86.9105132,40.4268072,9.959621901651031,-0.116525238,-0.049122558,-0.057811059,0.054623386,-0.043301955,Campus
78,-32,0.035741978985013315,-0.055329121,0.033595116,-104.6226839,41.42936912536621,-45.05350124,-45.76366291,-12.33017381,-16.31322972,10.061206488933378,-0.439077145,0.1302258864958382,-0.896071392,0.018634367709504995,-0.014081911,0.4422362501760131,-0.008841064,0.045763636,2.2246981083768085,0.14930670006761274,0.024959145819099204,0.041848789,45,0.4065749943256378,3.7856955528259277,6.622000217437744,1.3805662393569946,118.55854034423828,161,-86.9104943,40.4268035,10.061206488933378,-0.439077145,0.1302258864958382,0.014209611323273297,-0.038980061,0.033636631,Campus
79,-37.44444444,0.003559358,0.027088726185656224,-0.038107472,-105.4862001,44.02101493835449,-45.40754517,-46.62656876,-9.739869843,-16.66800572,9.885650606988703,-0.591817055,0.27247396366217497,-0.884464047,0.021103361,-0.014270373,0.4642560997834572,-0.005987821,0.051477496368953816,2.174879007614576,-0.04209634,-0.107579227,0.2043216865724669,45,0.24036669731140137,3.7958474159240723,6.531000137329102,1.3270725011825562,110.79320526123047,161,-86.9104746,40.4268013,9.885650606988703,-0.591817055,0.27247396366217497,-0.017973006,0.043431828,-0.038083977,Campus
80,-31.875,-0.267095928,0.05872733,0.020856280630291664,-108.5326619,37.95041725158691,-40.98126347,-49.67290913,-15.80900361,-12.24099173,9.567788462037022,-0.2251315,0.14784101063602614,-0.913610727,0.012261196,0.019605920515283128,0.3994394095198622,0.046886448364126164,0.008734843,2.317383534699968,-0.34817897,-0.138048351,0.6127534991365324,45,0.19209718704223633,3.805738687515259,5.892000198364258,1.3073652982711792,104.91568756103516,161,-86.9104579,40.4267996,9.567788462037022,-0.2251315,0.14784101063602614,-0.288628293,0.075079356,0.020912621920765602,Campus
81,-42.88888889,-0.641397036,-0.046433286,0.073377286,-108.0854098,30.57783540725708,-34.66654348,-49.22504707,-23.18207361,-5.925295853,9.912151623698113,-0.662681197,0.25777436937267656,-0.685198977,0.023107037,0.011267687252822142,0.17670030110075988,0.042340184,0.045082615512124835,1.8722751534100874,-0.004100596,-0.214586448,0.677933938,45,0.22139997780323029,1.0190377235412598,5.085999965667725,1.273845911026001,111.20033264160156,155,-86.9104419,40.4267955,9.912151623698113,-0.662681197,0.25777436937267656,-0.662929402,-0.030084227,0.07342473,Campus
82,-44.25,-0.139814339,0.002600548,-0.050784833,-107.2697175,27.61860347747803,-31.82077133,-48.40959923,-26.1410615,-3.08147594,9.705448358961679,-0.577306212,0.33634549044343887,0.5326032088798227,-0.009421475,0.013298659,0.034506203,-0.06445884,0.053736592579669167,-2.401160849,-0.185190173,-0.043259723,-0.302344051,45,0.19265994429588318,1.0289101600646973,4.752999782562256,1.2972959280014038,138.2805938720703,155,-86.9104332,40.4267871,9.705448358961679,-0.577306212,0.33634549044343887,-0.161346705,0.018952575150551727,-0.050759628,Campus
83,-43,-0.066998973,0.079424969,0.040391533644598666,-107.485048,26.002225494384767,-27.6570335,-48.625173,-27.75768345,1.0829939755238593,10.09969489551285,-0.679924617,-0.090723987,0.9963222533753775,-0.020528558,-0.005406664,0.069416198,0.008505111,0.042695185,-3.00286209,0.1826619916749232,-0.254740339,-0.006839776,45,0.1966177374124527,1.0388487577438354,4.507999897003174,1.3155180215835571,168.0774688720703,155,-86.9104305,40.426771,10.09969489551285,-0.679924617,-0.090723987,-0.088531339,0.095800718,0.040462702,Campus
84,-38.33333333,-0.050998334,-0.116923876,0.014747809474040004,-105.8035217,25.574371490478516,-28.2148175,-46.94315922,-28.18553747,0.5254539938271046,10.011213353047005,-0.472343765,-0.075957741,0.9963144422734825,-0.021749185,-0.005048799,0.069409355,0.008208289,0.043718329,-3.003196249,0.070760931,-0.059155834,0.017819671231566123,45,0.2002480924129486,1.0489137172698975,4.276000022888184,1.2943629026412964,180.49588012695312,155,-86.9104332,40.426755,10.011213353047005,-0.472343765,-0.075957741,-0.072530698,-0.100562954,0.014810079401268543,Campus
85,-29.125,-0.010374025,0.03759083,0.002957865,-104.6816099,26.214993419647218,-27.64324747,-45.82222298,-27.54454937,1.096901994049549,10.058906615359112,-0.266044708,-0.17637484,0.994133265,-0.00602751,-0.003497894,0.10212320447402093,0.006177497,0.013196962,-2.936770085,0.10389039122942582,-0.105532886,-0.120711075,45,0.20893613994121552,1.0588706731796265,4.718999862670898,1.2935947179794312,183.8474578857422,155,-86.9104365,40.4267398,10.058906615359112,-0.266044708,-0.17637484,-0.031906392,0.053954715370901324,0.003003826,Campus
86,-37.55555556,-0.081279751,-0.002132036,-0.054639695,-106.3155561,25.11443157196045,-26.70067549,-47.45604698,-28.64425743,2.039107958,10.01357073922759,-0.116022855,0.092594106,0.9942211271489708,0.002542243,0.004018642,0.099859125,-0.007228725,-0.005063078,-2.941414106,0.080464386,-0.151571985,0.029365056745924996,45,0.2235749214887619,1.0689197778701782,5.057000160217285,1.2919085025787354,186.61485290527344,155,-86.9104395,40.4267255,10.01357073922759,-0.116022855,0.092594106,-0.102812117,0.014233333357040164,-0.054593732,Campus
87,-38.625,0.072345369,-0.017859868,0.012755143254977262,-107.178218,23.51684154510498,-24.8618915,-48.31773327,-30.24331148,3.877525910139084,9.771744640128126,-0.004942455,-0.160388809,0.9902961803871451,0.003823229,0.004697091,0.13522099566112444,-0.008310398,-0.008895299,-2.870544656,-0.103282229,-0.1033585,-0.255035121,45,0.18443472683429718,1.078934907913208,5.196000099182129,1.291302204,186.0402832,155,-86.9104411,40.4267131,9.771744640128126,-0.004942455,-0.160388809,0.050813003,-0.001490052,0.012808519069702156,Campus
88,-39.66666667,-0.084233169,-0.015760452,0.006777142,-107.3065618,24.356689548492433,-23.92578556,-48.44656509,-29.40212145,4.813631887435913,10.004272396124682,-0.193008437,-0.33469607,0.9917262213901409,-0.007641995,-0.011941849,0.12315026019672745,0.021847908,0.018418605333121802,-2.894656762,0.085963092,-0.016306426,-0.107530064,45,0.40948086977005005,1.0383026599884033,5.073999881744385,1.4926904439926147,185.5298614501953,154.6999969482422,-86.9104483,40.4266969,10.004272396124682,-0.193008437,-0.33469607,-0.105765534,5.886102710100054E-4,0.006823104,Campus
89,-35.75,0.12461284120721618,0.012745563217322342,0.02355286,-106.6735041,22.401639575958253,-24.0842635,-47.81460503,-31.35814743,4.655641887187958,9.826898621123972,-0.082163261,-0.365332326,0.9940996490992032,0.002888334,-0.013961286,0.10403737175063445,0.028406789,-0.002665368,-2.932698385,-0.111869564,-0.115276083,-0.093922633,45,0.40490424633026123,1.048288345336914,5.244999885559082,1.5008058547973633,181.30233764648438,154.6999969482422,-86.9104534,40.4266841,9.826898621123972,-0.082163261,-0.365332326,0.10308047507155257,0.029112158159617908,0.023595443,Campus
90,-29.22222222,-0.009294663,-0.002238786,0.010121976025402546,-104.0572139,19.41666561126709,-25.34013144,-45.19575306,-34.34287712,3.4000179386138916,9.945488517724195,0.3078610274038793,-0.30723959,0.9964046159994255,0.018082978015706776,-0.018822099,0.075175371,0.040390889178418994,-0.033119329,-2.990192684,0.028484238,-0.020781474,0.093463796,45,0.38945743441581726,1.058249592781067,5.414000034332275,1.5055302381515503,177.4575195,154.6999969482422,-86.9104558,40.4266679,9.945488517724195,0.3078610274038793,-0.30723959,-0.030827029,0.014108792856082466,0.010163490081802734,Campus
91,-45.25,0.007239727,0.007167077,-0.016565525,-103.3497357,23.333963527679444,-25.48091948,-44.48986111,-30.42692146,3.258985925912857,10.018728103452515,-0.034890494,-0.339388787,0.9956973675385262,0.001616173,-0.018172055,0.087716354,0.036484672,1.9395478901643198E-4,-2.965926349,0.09619455,-0.032751403,0.02285983,45,0.4059324264526367,1.0682709217071533,5.558000087738037,1.4768892526626587,176.19635009765625,154.6999969482422,-86.9104553,40.426651,10.018728103452515,-0.034890494,-0.339388787,-0.014292641,0.023513171,-0.016540321,Campus
92,-42.33333333,-0.05172186,-0.031606898,0.021923782,-104.5316718,22.783743495941163,-24.15465746,-45.67179699,-30.97701935,4.585369905233383,9.836179561985348,0.1735057832935409,-0.384286155,0.9949864727779499,0.013068726286292076,-0.015625328,0.092603781,0.033839998,-0.022942039,-2.955442135,-0.084674201,-0.053806674,-0.048543889,45,0.2769933044910431,1.0682709217071533,5.856999874,1.3169987201690674,178.50115966796875,154.6999969482422,-86.9104572,40.4266348,9.836179561985348,0.1735057832935409,-0.384286155,-0.073254227,-0.015247459,0.021972710011273766,Campus
93,-41.375,0.10981462019251532,-0.04592326,0.013846365199198277,-103.9748641,20.94325155258179,-26.73215155,-45.11523319,-32.81616943,2.007631959,9.836545397934405,0.3858455577684404,-0.10208409,0.9965461145326929,0.015816642497174523,0.008714911,0.077174513,-0.014631842,-0.032761077,-2.987230803,-0.083803705,0.061364746,-0.24720709,45,0.4014914035797119,1.0884054899215698,6.298999786376953,1.4340629577636719,184.16851806640625,154.6999969482422,-86.9104567,40.4266204,9.836545397934405,0.3858455577684404,-0.10208409,0.088282255,-0.029566787,0.013890844297333105,Campus
94,-30.66666667,-0.046752055,0.06694708,0.064659369,-103.34449,22.809851551055907,-27.13670341,-44.48473721,-30.94993526,1.6023479615151883,9.894563225599436,0.3482879919644732,0.14545313069398758,0.9967129155270105,0.023767274891159686,0.001148948,0.070422223,0.001266821,-0.047162856,-3.000370734,0.016158025241592554,-0.122730506,0.15836955209090872,45,0.4014914035797119,1.0884054899215698,6.298999786376953,1.4340629577636719,184.16851806640625,154.6999969482422,-86.9104567,40.4266204,9.894563225599436,0.3482879919644732,0.14545313069398758,-0.068284421,0.083310968,0.06470533,Campus
95,-39.77777778,0.019717615075156236,-0.062398345,-0.063001777,-105.5909978,20.99754159927368,-25.29255148,-46.73173325,-32.76236729,3.446865944042802,9.967404393316473,0.5058874299069324,-0.150983045,0.9969775300581478,0.025110329770894484,-0.008011368,0.068539359,0.019579187,-0.048889333,-3.003628048,0.029218983881681867,0.026150737102459937,0.043753521,45,0.29522690176963806,1.098265528678894,6.382999897003174,1.3985832929611206,183.96572875976562,154.6999969482422,-86.9104637,40.426591,9.967404393316473,0.5058874299069324,-0.150983045,-0.001814749,-0.04604187,-0.062983986,Campus
96,-42.5,-0.046918111,-0.014372703,-0.038413694,-104.66575,21.25203365325928,-27.69656149,-45.80624119,-32.50836323,1.0433439724892377,9.974240197,0.4340098249337193,0.288602283,0.9966088139895096,0.020970201337847348,0.015087039361990993,0.073231861,-0.026582335,-0.043876072,-2.995323612,0.035502017,-0.005781042,0.024845390933231244,45,0.27424728870391846,1.1082838773727417,6.423999786376953,1.305567741394043,176.77366638183594,154.6999969482422,-86.9104646,40.4265772,9.974240197,0.4340098249337193,0.288602283,-0.068450477,0.001982288,-0.038381076,Campus
97,-41.75,-0.007218969,0.052523968,0.020666506442634697,-106.9444659,23.288335571289064,-25.17543156,-48.08520123,-30.47193943,3.5645959352701904,10.011494432838218,0.1585390176262381,-0.194637535,0.9962168712060429,0.007931441,-0.004105212,0.080615172,0.009826849,-0.014691342,-2.979935074,0.096097738,0.012460545284076802,-0.094334024,45,0.28469082713127136,1.1182940006256104,6.486000061035156,1.3402869701385498,174.82510375976562,154.6999969482422,-86.9104602,40.4265651,10.011494432838218,0.1585390176262381,-0.194637535,-0.028751336,0.068880442,0.020706538,Campus
98,-53.55555556,0.025126282985263405,0.008958105,0.016088115,-106.0071398,20.76671760559082,-23.96104357,-47.14775311,-32.99441149,4.778861901760101,9.804698198744394,0.3770728401242963,-0.301036833,0.9957291640124275,0.019036077,-0.014158088,0.084791498,0.031674138465851036,-0.035267667,-2.971145028,-0.127207992,0.019560931883390666,0.016801669289475504,45,0.6836806535720825,1.1382122039794922,8.163999557495117,1.486350655555725,183.33387756347656,154.6999969482422,-86.9104614,40.4265495,9.804698198744394,0.3770728401242963,-0.301036833,0.003593919,0.025316060032442356,0.016131111902175744,Campus
99,-58,0.002478632,-0.039387902,0.002149712,-105.3296741,21.37134956359863,-25.2022715,-46.46882301,-32.38880333,3.537755917906761,9.807674732023072,0.2847168487168903,-0.099084347,0.9965551426777473,0.014238562791853418,-0.005155601,0.076565365,0.012578233995345026,-0.027325058,-2.98798673,-0.170590304,0.021916873,0.021352091,45,0.6881018280982971,1.1482335329055786,10.25100040435791,1.4402625560760498,178.59532165527344,154.6999969482422,-86.9104643,40.4265325,9.807674732023072,0.2847168487168903,-0.099084347,-0.019053737,-0.023041863,0.002177611,Campus
100,-50.5,0.012695837123952444,-0.015713007,-0.011026386,-105.2997841,22.59000743865967,-26.5288995,-46.44003109,-31.17026733,2.211249955892563,9.95506563,0.2621389493997236,0.11596187776931137,0.997547876,0.013035080914280505,0.00879695,0.063980674,-0.015675144,-0.027032184,-3.013659533,0.024746242,-0.006185134,-0.039778151,45,0.7285653352737427,1.1582605838775635,12.119999885559082,1.4300696849822998,178.24868774414062,154.6999969482422,-86.9104654,40.4265182,9.95506563,0.2621389493997236,0.11596187776931137,-0.008836528,6.360525889231742E-4,-0.010993768,Campus
101,-47.88888889,-0.178457841,-0.033706315,0.006611087,-106.481476,22.35576763153076,-24.92801552,-47.62086887,-31.40389736,3.812377957701683,9.911080138197223,0.052932486,0.33395847513620713,0.995344625,0.003592031,0.012113620709199503,0.088900625,-0.023852572,-0.009317054,-2.963501615,-0.015685873,-0.039501928,0.097135612,45,0.7285653352737427,1.1582605838775635,12.119999885559082,1.4300696849822998,178.24868774414062,154.6999969482422,-86.9104654,40.4265182,9.911080138197223,0.052932486,0.33395847513620713,-0.199990207,-0.01736615,0.00664074,Campus
102,-48.25,-0.063239001,0.016406882,-0.063713445,-104.3467203,22.856455593109132,-22.27256361,-45.48757706,-30.90345324,6.466853878498077,10.01316709425843,-0.018312064,0.2238305528801911,0.9824206244598315,-0.008178464,0.010788513877591823,0.1818879460102146,-0.024534061,0.01263713,-2.77582422,0.10143252715323735,0.1081736455987958,-0.018920885,45,0.32260701060295105,1.168235182762146,14.54699993133545,1.2995624542236328,177.00709533691406,154.6999969482422,-86.9104657,40.4264873,10.01316709425843,-0.018312064,0.2238305528801911,-0.084771365,0.032761873772313585,-0.063683791,Campus
103,-54.33333333,0.16575162505812363,-0.031500148,0.050058341,-103.5793401,23.421925468444826,-24.50321148,-44.71909924,-30.33847136,4.236937905550003,9.840268214,0.20138912535842182,0.086821129,0.9916864153250907,0.004983596,0.009660281,0.12385202126884923,-0.017612807,-0.011877495,-2.893178609,-0.09761939,0.08378837,-0.088457725,45,0.36840152740478516,1.1782736778259277,15.218000411987305,1.282085896,187.39944458007812,154.6999969482422,-86.9104676,40.4264714,9.840268214,0.20138912535842182,0.086821129,0.14421925771511296,-0.015148122,0.050098372,Campus
104,-42.625,0.063651174,0.027544467818462155,-0.026291637,-104.304874,22.51534362792969,-26.43154352,-45.44475506,-31.24456535,2.308727951645851,9.775123444887308,0.077378482,0.2721490635482881,0.9967134959489397,0.004805992,0.015257958419258182,0.073774666,-0.029253843,-0.011761972,-2.994026677,-0.134778388,-0.047801121,-0.024561392,45,0.2779570519924164,1.198273777961731,14.420999526977539,1.2537280321121216,173.6492919921875,154.6999969482422,-86.910469,40.4264634,9.775123444887308,0.077378482,0.2721490635482881,0.042118805912730185,0.043905387,-0.026259018,Campus
105,-38.55555556,0.009042615,0.016489911218653026,0.007417644,-104.6214639,24.344733448028563,-26.86244751,-45.76134495,-29.41566336,1.8781899518147112,9.924205784658783,-0.139884297,0.069005637,0.998590697,-0.008021376,0.002590979,0.047658515,-0.005981928,0.016050658,-3.046257616,-0.037469586,0.022923856828976602,0.013319342605118613,45,0.24134983122348785,1.198273777961731,12.888999938964844,1.238206386566162,167.4071807861328,154.6999969482422,-86.9104683,40.4264541,9.924205784658783,-0.139884297,0.069005637,-0.012489751,0.032843419,0.007451744,Campus
106,-44.25,0.033606977,0.017592994005699615,-3.99E-04,-104.7766481,24.89141555786133,-27.81185148,-45.91652912,-28.86898146,0.928297977,9.876590349141834,-0.021854836,0.1213660565277254,0.6886790475799042,0.005760721,0.004485397,0.030136595132840668,-0.011419488,0.008939734,-2.048667528,-0.03947189,0.056956492,0.015039761,45,0.24134983122348785,1.198273777961731,12.888999938964844,1.238206386566162,167.4071807861328,154.6999969482422,-86.9104683,40.4264541,9.876590349141834,-0.021854836,0.1213660565277254,0.012074611552095818,0.033945019,-3.50E-04,Campus
107,-51.22222222,-0.049634305,-0.02128773,-0.019329163,-104.9551343,24.734523582458497,-26.49595949,-46.09501507,-29.02538538,2.2439459604024887,9.922794508702546,-0.170250498,0.071479765,0.9990680536020149,-0.007263494,9.713074677280214E-4,0.035507571151100314,-0.002340542,0.014642708,-3.070512598,-0.046089043,-0.01451681,0.046651194703955096,45,0.3438029885292053,1.218306541442871,11.397000312805176,1.3441814184188843,178.83206176757812,154.6999969482422,-86.9104673,40.4264231,9.922794508702546,-0.170250498,0.071479765,-0.071166672,-0.004935704,-0.019292098,Campus
108,-51.25,-0.08713914,-0.004421229,0.058218785,-104.4692083,22.98711763381958,-24.81321354,-45.60835709,-30.77279137,3.9259599113464354,9.875875954489105,0.039478672,-0.012605882,0.9971721073956166,0.003685327,0.005482166,0.070748014,-0.010404467,-0.007707129,-3.000026863,-0.052208002,-0.042682208,-0.113697703,45,0.32630398869514465,1.228306770324707,11.302000045776367,1.3192051649093628,177.76705932617188,154.6999969482422,-86.9104632,40.4264009,9.875875954489105,0.039478672,-0.012605882,-0.108671505,0.011932278431734993,0.058263264,Campus
109,-57.33333333,-0.056761807,-0.039599349,-0.036039989,-103.8438363,21.853371562957765,-24.15416954,-44.98481529,-31.90678135,4.585491914749145,9.896095933266057,0.2149591079711896,0.2611312912460597,0.9935817982141788,0.007908671,0.016991739704210956,0.10966157927536048,-0.032073983,-0.019296995,-2.92199663,-0.028006425,0.034775739105848164,-0.06353976,45,0.3347263038158417,1.2382200956344604,11.152000427246094,1.3741440773010254,184.67568969726562,154.6999969482422,-86.9104696,40.4263841,9.896095933266057,0.2149591079711896,0.2611312912460597,-0.078294173,-0.023259184,-0.036019432,Campus
110,-63,0.11357459349069492,0.005565826,0.028340644,-104.3275661,23.029817543029786,-26.04882954,-45.4683009,-30.73070137,2.6914419466257096,10.118201570603453,0.016288039,0.4267181020808741,0.9960303404956188,-0.001126515,0.021487589030372865,0.07808812,-0.042797063,-0.001057896,-2.985143476,0.19741743513681356,0.006302836,0.001934913,45,0.33027559518814087,1.248252272605896,12.531999588012695,1.309445858001709,188.02120971679688,154.6999969482422,-86.9104713,40.426364,10.118201570603453,0.016288039,0.4267181020808741,0.092042227,0.0219223,0.028379193314993122,Campus
111,-47.66666667,-0.084446669,0.029703188920393586,-0.047285805,-104.17104,21.75943162918091,-25.58632748,-45.31055519,-32.00218542,3.153699939250946,9.916196790713709,0.2243764929798911,0.1493249098607565,0.9969316339029849,0.007825054,0.00700101,0.074703069,-0.012686744,-0.016467753,-2.991994022,-0.006359684,0.061444279638308924,0.022990464567414767,45,0.7113233804702759,1.2682682275772095,14.86299991607666,1.5011932849884033,183.71827697753906,154.6999969482422,-86.9104704,40.4263529,9.916196790713709,0.2243764929798911,0.1493249098607565,-0.105979035,0.046053732,-0.047251705,Campus
112,-46.77777778,0.008698643,-0.005737813,0.05998609,-104.8591199,23.13559154510498,-25.11638346,-46.00070911,-30.62407343,3.624375935,10.20758975593789,0.037416893,0.097748546,0.9968187612237283,7.365338867547181E-4,0.002188727,0.075494359,-0.004241707,-0.001705387,-2.990537384,0.25659076449940504,0.020965045914777273,0.055968884,45,0.6749791502952576,1.2782659530639648,14.79699993133545,1.5380080938339233,182.24310302734375,154.6999969482422,-86.9104699,40.4263419,10.20758975593789,0.037416893,0.097748546,-0.012833723,0.010615695823996681,0.060039466,Campus
113,-36.75,0.051801924,-0.039613148,-0.016019913,-104.667214,22.833397464752196,-25.54179752,-45.80672928,-30.92638947,3.198473943527788,10.02556969355611,0.11521847750449064,-0.008737868,0.9968182294114122,0.004751069,0.0036267,0.071045757,-0.006551175,-0.009417749,-2.999520508,0.0776294,0.022221843268975472,-0.073862749,45,0.6733024716377258,1.2883784770965576,14.562999725341797,1.5189825296401978,183.82423400878906,154.6999969482422,-86.9104677,40.4263266,10.02556969355611,0.11521847750449064,-0.008737868,0.030269557,-0.02325964,-0.015987295,Campus
114,-56,0.019527837,0.043746745,-0.002059387,-104.283036,22.372969493865966,-28.19968945,-45.42255112,-31.38657343,0.5399719886295498,10.104904381128458,0.18079615455980486,0.3160539081456171,0.9989880317623175,0.011073181130236706,0.015222277456116907,0.034027864,-0.029299649,-0.023139583,-3.073856784,0.12557923215106853,-0.033979827,0.008482169,45,0.740458608,1.2983825206756592,14.470000267028809,1.5206923484802246,184.95118713378906,154.6999969482422,-86.9104708,40.4263115,10.104904381128458,0.18079615455980486,0.3160539081456171,-0.002004528,0.060098771,-0.002008976,Campus
115,-50,-0.033503193,0.039310689775942306,-0.055612305,-105.2175559,23.173655586242674,-25.74199949,-46.35682713,-30.58637539,2.998393944501877,9.727070877852949,0.13400968416476422,0.052139721580247565,0.998095205,0.00458464,-0.001132885,0.057484012386463224,0.003054114,-0.009065343,-3.026623904,-0.220464771,0.04271224,0.10364478873541054,45,0.6786296963691711,1.308319330215454,14.612000465393066,1.4181978702545166,182.13858032226562,154.6999969482422,-86.9104712,40.4262992,9.727070877852949,0.13400968416476422,0.052139721580247565,-0.055035559,0.055653819,-0.055575238,Campus
116,-52.44444444,-0.035507721,-0.0474059,0.017345393487948526,-106.4748876,24.247987594604492,-24.71500343,-47.61489098,-29.51192135,4.0253899073600765,10.053894473511038,-0.238355912,-0.035334787,0.9971662823436329,-0.010600902,-0.002016898,0.07026529,0.002487113,0.021620021523790237,-3.001128208,0.097885956,-0.021011515,-0.014954672,45,0.6793944239616394,1.318330169,14.409000396728516,1.3619270324707031,183.41136169433594,154.6999969482422,-86.9104693,40.4262887,10.053894473511038,-0.238355912,-0.035334787,-0.057040087,-0.031056838,0.017383943,Campus
117,-49.875,-0.040050527,0.011152411326178287,0.023608059518364737,-105.394822,22.525591621398927,-25.72613947,-46.53604511,-31.23431761,3.013277931213379,9.925582260761447,0.076846197,0.097437829,0.9956278442179115,-5.50E-05,0.011414290446357448,0.091121307,-0.022657725,-0.001920735,-2.958989597,-0.015084276,0.03907802,-0.121394789,45,0.713870108,1.3282463550567627,14.543999671936035,1.4458566904067993,182.6650391,154.6999969482422,-86.9104707,40.426277,9.925582260761447,0.076846197,0.097437829,-0.061582892,0.027498504938105645,0.023643643491295645,Campus
118,-52.44444444,0.090065871,-0.021347036,0.002744368,-104.9376883,22.72176753997803,-26.02589354,-46.07708111,-31.03801939,2.714621941447258,9.849453259,0.054422193,0.1663940977370163,0.9969513919746992,0.001884931,0.004215478,0.071076852,-0.008014865,-0.004157739,-2.999261622,-0.09473777,0.019241615515021446,0.085731975,45,0.7861562967300415,1.3382664918899536,14.395999908447266,1.4616948366165161,187.30198669433594,154.6999969482422,-86.910472,40.4262592,9.849453259,0.054422193,0.1663940977370163,0.068533503,-0.005000941,0.002781433,Campus
119,-54.375,-0.021779054,9.632598241576209E-4,-0.07326643,-105.0744499,24.16539348602295,-28.04328543,-46.214575,-29.59524738,0.6968639686144888,9.947007281108966,-0.313297148,0.24811305800109235,0.9984256287033741,-0.011361398,0.014589593404917441,0.048322433,-0.030035751,0.021424896341229144,-3.044418677,0.030145182059361383,-0.096585061,-0.055385257,45,0.741372824,1.3483434915542603,14.366999626159668,1.5165929794311523,186.99673461914062,154.6999969482422,-86.9104719,40.4262456,9.947007281108966,-0.313297148,0.24811305800109235,-0.043311421,0.017319577,-0.073250277,Campus
120,-55.88888889,-0.082240501,0.0227763,0.014878281629508704,-105.5652565,26.530851593017577,-26.36737139,-46.70428299,-27.22978943,2.3725339426100254,9.858992687706808,-0.467323495,0.28008511893957566,0.9961825638141447,-0.027454968,0.004732993,0.080415622,-0.013824737,0.053960986424676026,-2.980165776,-0.079981239,0.070096557,0.14282530972969185,45,0.6733057498931885,1.3583624362945557,14.392999649047852,1.457416296005249,181.97987365722656,154.6999969482422,-86.9104723,40.4262328,9.858992687706808,-0.467323495,0.28008511893957566,-0.103772867,0.039132773,0.014918313237377306,Campus
121,-31.375,0.045432506359715776,-0.046682371,-0.021523472,-105.9555339,28.37951749801636,-25.99063553,-47.0959029,-25.37965958,2.7493919321149587,9.882264591,-0.76036586,0.1502919157297866,0.9949894587970475,-0.039372054,0.001639234,0.084549656,-0.009689554,0.07875014,-2.971794844,-0.034323271,0.023143502983074743,0.054340606573426604,45,0.6828968524932861,1.368308424949646,14.694000244140625,1.4420307874679565,180.74481201171875,154.6999969482422,-86.9104699,40.426214,9.882264591,-0.76036586,0.1502919157297866,0.023900139715197017,-0.030337758,-0.021476027,Campus
122,-44,0.039869645,0.034329022,-0.013315581,-106.0017722,27.893225498199463,-26.10836559,-47.14214115,-25.86668356,2.632027943730354,10.020429777867585,-0.609446696,-0.015710159,0.9962313377741471,-0.031259834,-0.001752272,0.073457852,-8.95E-04,0.063121177,-2.994347503,0.087632114,0.019151274440357986,-0.024656605,45,0.6673987507820129,1.3782811164855957,14.439000129699707,1.5186774730682373,181.34475708007812,154.6999969482422,-86.9104713,40.4262015,10.020429777867585,-0.609446696,-0.015710159,0.018337279,0.050676602,-0.013278515,Campus
123,-54.125,0.069439396,-0.001242451,0.041897894735493275,-106.3377599,27.000063400268555,-26.4230035,-47.476665,-26.76106546,2.3173899540305136,9.891141905367952,-0.506947363,-0.063534669,0.9981444096102298,-0.023345205,-0.007466712,0.043025911,0.012955236137695995,0.047598097528764996,-3.055716753,-0.055707209,-0.03241082,0.065163229,45,0.6736712455749512,1.3883548974990845,14.394000053405762,1.4458521604537964,182.1446075439453,154.6999969482422,-86.9104697,40.4261875,9.891141905367952,-0.506947363,-0.063534669,0.047907032,0.015097712519244083,0.041939409,Campus
124,-42.88888889,0.007726032,-0.016756786,-0.009792831,-105.93211,25.03134952545166,-26.74849955,-47.07150322,-28.72916948,1.9910399439930915,9.906409387405102,-0.171147214,-0.158708563,0.9992805528409273,-0.011844062,-0.006494312,0.026168959549836165,0.012388357150202246,0.024347694,-3.089288019,-0.070124557,0.048313017,-0.022849686,45,0.6622191071510315,1.3982921838760376,14.694999694824219,1.5430392026901245,178.2736358642578,154.6999969482422,-86.9104693,40.4261722,9.906409387405102,-0.171147214,-0.158708563,-0.013806334,-4.17E-04,-0.009755765,Campus
125,-44.25,-0.056051166,0.016418744348785253,-0.003601332,-106.3461778,25.375511531829833,-26.1204435,-47.4866692,-28.38500746,2.620071942806244,9.952457951110544,-0.460688052,-0.184523215,0.9991601925451778,-0.016289182,-0.007750527,0.030152377383150523,0.014584123681963972,0.033200187701279825,-3.081435627,0.012844724562561628,-0.119901712,-0.040400787,45,0.7155309319496155,1.4084089994430542,14.621999740600586,1.4891728162765503,174.67808532714844,154.6999969482422,-86.9104655,40.4261562,9.952457951110544,-0.460688052,-0.184523215,-0.077583533,0.032769287,-0.003568713,Campus
126,-52.55555556,0.040391533188544465,-0.008169341,-0.015984332,-106.44634,24.590807495117186,-25.14761551,-47.5858551,-29.16983343,3.592411948442459,9.823111951,-0.442817384,-0.122463735,0.9985293670765405,-0.019507057,-0.012936715,0.03948924,0.024517925677694452,0.040556730589494834,-3.062939692,-0.122321184,-0.026170466,0.11254951661651574,45,0.6999831795692444,1.418405532836914,14.642999649047852,1.368660807609558,176.07769775390625,154.6999969482422,-86.9104622,40.4261413,9.823111951,-0.442817384,-0.122463735,0.018859168709011623,0.008178237,-0.015954679,Campus
127,-43.75,-0.086534223,-0.030930816,0.020405559845775075,-106.198436,25.31792746,-25.87449162,-47.33929329,-28.44246944,2.865291935391724,9.974486985252899,-0.522178366,-0.130080692,0.997499307,-0.027738883,-0.005755017,0.058306972,0.008221239,0.056238839,-3.025085586,0.056982586684736235,0.026363161871734174,-0.045834966,45,0.6938372850418091,1.428315281867981,14.833999633789062,1.3909050226211548,179.97372436523438,154.6999969482422,-86.9104613,40.4261271,9.974486985252899,-0.522178366,-0.130080692,-0.108066589,-0.014584719,0.020450039,Campus
128,-18.55555556,0.16158837521249808,-0.041926064,0.025553283,-104.6770962,22.296597423553468,-28.07720154,-45.81697716,-31.46343359,0.6630699921026826,9.784039793662654,-0.132990408,0.12466489523649216,0.5128518325611225,-0.003085167,-6.21E-04,0.053174652,-0.019634643,0.004865143,-1.531414449,-0.179112647,-0.079853037,-0.083958244,45,0.3143951892852783,1.4382551908493042,14.741999626159668,1.2884776592254639,180.53167724609375,154.6999969482422,-86.9104608,40.4261158,9.784039793662654,-0.132990408,0.12466489523649216,0.14005600873073473,-0.025571075,0.025597761118404783,Campus
129,-10.125,-0.122557105,0.02707698,-0.044979503,-104.6777059,23.66348566055298,-28.15735537,-45.81783127,-30.09617941,0.5823059824667871,9.883545236680114,-0.182066506,0.080740339,0.7102737151659452,-0.010859523,-0.003855183,0.041865916422326475,-0.006372424,0.016271792704803653,-2.158046589,-0.027834516,-0.010742132,0.023087223,45,0.22655384242534637,1.4482773542404175,13.479000091552734,1.2811510562896729,184.1234130859375,154.6999969482422,-86.9104609,40.4261037,9.883545236680114,-0.182066506,0.080740339,-0.144089471,0.043431827,-0.044945731,Campus
130,-24.11111111,0.087693648,-0.031689925,0.031898977,-105.4400844,24.537737579345702,-27.98143141,-46.5799651,-29.22204947,0.7587179854512215,9.944146920176385,-0.195436115,0.27348162132757264,0.7075203020595809,-0.007885218,-0.001348652,0.040980175846890385,-0.013145445,0.011345288181650334,-2.148348778,0.003291625,-0.082140367,0.1430121364379392,45,0.2610011696815491,1.015982985496521,11.133999824523926,1.260170817375183,190.9656219482422,154.89999389648438,-86.9104721,40.4260888,9.944146920176385,-0.195436115,0.27348162132757264,0.066161282,-0.015337899,0.031936044,Campus
131,-27.77777778,0.059298147,0.024199633115396194,-0.025164833,-105.5257283,22.60281749725342,-28.50981337,-46.66585312,-31.15672535,0.22948199965059757,9.849886005364576,0.2072666463378853,-0.044778304,0.45556201055211926,0.008087271,-0.001217094,0.036571320922801145,-0.016199038,-0.008613568,-1.387533366,-0.074777168,0.12195753581026225,-0.205556328,45,0.219652921,1.025974988937378,9.694000244140625,1.2616908550262451,192.54307556152344,154.89999389648438,-86.9104781,40.4260831,9.849886005364576,0.2072666463378853,-0.044778304,0.037765777353378174,0.040556106,-0.025138145,Campus
132,-38.375,0.024604394999151888,0.001450021,-0.016043636,-105.819748,25.168477516174317,-30.53245127,-46.96011707,-28.59191946,-1.792545967,9.991320998923293,-0.27021182,0.036415043,-0.998412519,0.014746479458374522,5.612957536568413E-5,0.044596715,0.001534009,0.029811063170482776,3.0521838803893155,0.066567194,0.026654115,0.051202233,45,0.2170105129480362,1.035781741142273,8.871000289916992,1.2426023483276367,191.03350830078125,154.89999389648438,-86.9104809,40.4260785,9.991320998923293,-0.27021182,0.036415043,0.003072025,0.017802047,-0.016002121,Campus
133,-48,-0.318834099,0.036796135,-0.049954554,-106.1330444,25.896573505401612,-27.51319559,-47.27280308,-27.86309151,1.2260999678075313,9.914106021807031,-0.570740474,0.4699573364307724,0.5900116117255202,-0.025381331,-0.00472232,0.056023016,-0.001811094,0.046937186,-1.770826289,-0.014102843,-0.103594254,0.4520990811650035,45,0.2228238731622696,1.0459229946136475,7.538000106811523,1.2694224119186401,182.04811096191406,154.89999389648438,-86.9104758,40.4260724,9.914106021807031,-0.570740474,0.4699573364307724,-0.340366465,0.053151124,-0.049926384,Campus
134,-51.75,0.1197779537992353,-0.076062345,0.00451167,-106.923848,27.389243450164795,-25.15737555,-48.06311909,-26.3716415,3.5822859299369156,9.927421391010284,-0.703875242,-0.225719102,0.9929506743995888,-0.037394881,0.002903403,0.10553822167290067,-0.01311923,0.07456981,-2.929161368,0.027102808350498237,0.022175409261462758,-0.357855978,45,0.24066022038459778,1.055884599685669,7.848999977111816,1.2780718803405762,185.48709106445312,154.89999389648438,-86.9104704,40.4260617,9.927421391010284,-0.703875242,-0.225719102,0.09824559,-0.059707354,0.004560597,Campus
135,-57.5,0.1479718161620272,0.003324078,0.020049726521004063,-106.416328,26.549029445648195,-29.44103949,-47.55608696,-27.21026955,-0.700645983,9.840056285117436,-0.56861481,0.19767503320574037,0.45553273136175954,-0.004408765,0.005663471,0.040075977161127985,-0.032488589,0.05623218,-1.441122416,-0.081458124,-0.01158171,-0.124690801,45,0.24066022038459778,1.055884599685669,7.848999977111816,1.2780718803405762,185.48709106445312,154.89999389648438,-86.9104704,40.4260617,9.840056285117436,-0.56861481,0.19767503320574037,0.12643945413343247,0.019671654373913713,0.02010755,Campus
136,-49.66666667,-0.041248498,0.011591270177182063,-0.009164191,-105.665174,24.456485538482667,-30.11203947,-46.80505527,-29.30244732,-1.372133974,9.897695963,-0.246359093,0.20546041095394244,-0.242363678,0.009309904,-0.012843266,0.021581269,-0.013978474,0.025637056,0.7579513429438026,-0.022950603,0.008298593,0.072645597,45,0.23199757933616638,1.0658408403396606,8.371999740600586,1.2713040113449097,184.5873260498047,154.89999389648438,-86.9104638,40.4260365,9.897695963,-0.246359093,0.20546041095394244,-0.062780867,0.027943296,-0.009107851,Campus
137,-44.88888889,0.014569892921005783,0.028125661392515364,0.013976837752513516,-105.7498424,24.141481590270995,-27.86711742,-46.88960102,-29.61757351,0.8727879894524813,9.892146611,-0.309440758,-0.134962171,-0.048768588,7.141957150487392E-4,-0.009043979,0.020613280932522984,0.024134468626585852,0.021859466831213387,0.16215732954080822,-0.032844696,-0.089956786,0.094699961,45,0.22712604701519012,1.7795182466506958,8.480999946594238,1.268968939781189,179.6505126953125,154.89999389648438,-86.9104644,40.4260217,9.892146611,-0.309440758,-0.134962171,-0.006962473,0.044488065048726724,0.014021317284662747,Campus
138,-53.75,-0.033076196,-0.011182064,-0.04840075,-106.2345477,25.028543548583983,-28.32754541,-47.37479515,-28.73075546,0.4126039833202958,9.887073452032885,-0.35220665,-0.058627058,0.18404167253994247,0.001071479,-0.0041617,0.026713512464764402,-1.83E-04,0.047731212,-0.547387139,-0.017762948,0.1269436555290685,-0.052359871,45,0.2612867057323456,1.7895151376724243,8.409999847,1.2765820026397705,178.7393341064453,154.89999389648438,-86.9104595,40.4260076,9.887073452032885,-0.35220665,-0.058627058,-0.054608558,0.005168479,-0.048357754,Campus
139,-49.66666667,-0.054400646,0.030037239,0.080373402,-106.0348339,24.44257761001587,-26.19169147,-47.1745932,-29.31745348,2.5478479471988975,9.982797983780648,-0.454119412,-0.310698148,0.24929721768085772,-0.001758865,-0.017464775,0.021551749119960453,0.053646422160314754,0.047806825,-0.761116562,0.089443532,0.028385021,0.22048830183652732,45,0.6793647408485413,1.799452304840088,8.821000099182129,1.394500970840454,176.09445190429688,154.89999389648438,-86.9104528,40.4259889,9.982797983780648,-0.454119412,-0.310698148,-0.075933012,0.046403835,0.080421858,Campus
140,-45.375,0.002115727,-0.049706954,-0.039125361,-104.4976343,23.483535442352295,-26.32528149,-45.6369051,-30.27686152,2.4146239300444723,10.018893607611796,-0.449801293,-0.273693611,0.9594052468688743,-0.019676149,-0.013837314,0.038419626937663175,0.025724058872477595,0.042989994,-3.064941503,0.10839919673586354,-0.022257084,-0.018334843,45,0.7082822918891907,1.8095228672027588,10.093999862670898,1.4624584913253784,175.12637329101562,154.89999389648438,-86.910443,40.4259594,10.018893607611796,-0.449801293,-0.273693611,-0.019416641,-0.033354929,-0.039083848,Campus
141,-41.11111111,-0.024583637,-0.007232313,0.041032035,-104.1272419,24.77161153793335,-27.7589035,-45.26724518,-28.98939545,0.9803919868171215,9.900556337486194,-0.467169583,-0.17189411,0.9986258698898611,-0.018051263,-0.002708097,0.036848145,0.003995369,0.036722109,-3.06786811,-0.017566213,-0.102071875,-0.132238094,45,0.6855236887931824,1.819490671157837,11.347999572753906,1.5282022953033447,178.9735107421875,154.89999389648438,-86.910435,40.4259336,9.900556337486194,-0.467169583,-0.17189411,-0.046116002,0.009121195,0.041092823071911644,Campus
142,-46.125,0.065252424,-0.024015787,0.003206948,-104.2929176,23.701061573028564,-29.38491928,-45.43267719,-30.05835951,-0.64501399,9.855022967,-0.178625372,-0.031495819,0.37815950564967776,-3.75E-04,-0.006833591,0.028448067264938252,-0.003633503,0.016469408278195277,-1.155161281,-0.062979356,-0.014893735,-0.06739871,45,0.7198240160942078,1.8296154737472534,12.541999816894531,1.4830302000045776,177.99282836914062,154.89999389648438,-86.9104327,40.4259111,9.855022967,-0.178625372,-0.031495819,0.043720059,-0.007656349,0.003254393,Campus
143,-49.44444444,-0.070675918,0.002825909,-0.012864859,-104.3063382,25.504709491729738,-31.03155331,-45.44743923,-28.25593143,-2.291769955,9.948685757164816,-0.390152054,0.21513624680997098,-0.184016937,0.013362929,-0.002616803,0.017309730817694942,-0.004098842,0.046853726088336115,0.5616447948715062,0.034915207,0.076037524,0.1743814297092771,45,0.7388083338737488,1.839558482170105,13.800999641418457,1.4786490201950073,177.36976623535156,154.89999389648438,-86.9104314,40.4258934,9.948685757164816,-0.390152054,0.21513624680997098,-0.092208283,0.019185348902150845,-0.01282038,Campus
144,-49.75,-0.028331749,-0.014432008,-0.011655025,-102.8745457,27.934339427947997,-30.29772343,-44.01442711,-25.82666746,-1.557451968,9.966169545283684,-0.570990175,0.15275238709560093,0.6113197543088672,-0.002976767,-0.003071846,0.020416754528764833,-7.81E-04,0.051627388722444115,-1.886951217,0.036759557,-0.076039869,0.1503000678946671,45,0.6995375752449036,1.849452257156372,14.619999885559082,1.4942148923873901,177.79530334472656,154.89999389648438,-86.9104295,40.4258803,9.966169545283684,-0.570990175,0.15275238709560093,-0.049864115,0.001925948,-0.011598685,Campus
145,-50.88888889,-0.08895389,0.059913441,0.001878503,-105.7156817,29.025751399993897,-28.28106352,-46.85544136,-24.73403551,0.45932999059557916,9.934927023730232,-0.530561953,-0.167814117,0.9979244499530607,-0.02540325,-0.00876414,0.048893336911947985,0.014891845303546926,0.051908594,-3.044346826,0.026727097705729955,-0.013476161,-0.020024109,45,0.702269435,1.8595256805419922,14.324999809265137,1.4698795080184937,177.49874877929688,154.89999389648438,-86.9104285,40.4258659,9.934927023730232,-0.530561953,-0.167814117,-0.110486257,0.07628919,0.001937808,Campus
146,-60.875,-0.03667011,-0.041617676,0.004143975,-104.2267938,24.98816156387329,-26.74142344,-45.3671632,-28.77186941,1.9986039644479752,9.825403148688158,-0.145834407,-0.14230906,0.9954124897429086,-0.007384022,4.062127650153679E-4,0.089567097,-0.002046142,0.015174316322584681,-2.962086511,-0.092877532,0.002494612,-0.146292939,45,0.6819067001342773,1.8694555759429932,14.637999534606934,1.4838775396347046,181.48748779296875,154.89999389648438,-86.9104296,40.4258528,9.825403148688158,-0.145834407,-0.14230906,-0.058202474,-0.025271581,0.00418549,Campus
147,-58.88888889,0.044614091,-0.035188955,-0.017609303,-105.0152803,26.446793365478516,-27.23454746,-46.15625916,-27.31287151,1.5047479757480324,10.098820862260837,-0.255747437,-0.067330082,0.9971447401833766,-0.015090844,0.00232821,0.061656566,-0.006145913,0.030828238635559033,-3.017975208,0.17942021194013577,0.042211512,-0.125378288,45,0.7198643088340759,1.8794769048690796,14.848999977111816,1.4723167419433594,183.47341918945312,154.89999389648438,-86.9104348,40.4258403,10.098820862260837,-0.255747437,-0.067330082,0.023081723980388595,-0.018830999,-0.017575203,Campus
148,-55.25,0.032159923,-0.039980844,0.018555226,-104.2053216,24.128549518585206,-27.97069548,-45.34581314,-29.63135944,0.7690879933536052,9.874293359737951,-0.218809689,0.2929465358769431,0.9968620405613797,-0.00548582,0.016066108302589623,0.064820023,-0.03297641,0.010151034695332536,-3.011671467,-0.049864269,-0.114594461,-0.05379837,45,0.7017871141433716,1.8894672393798828,14.786999702453613,1.5042356252670288,184.68544006347656,154.89999389648438,-86.910437,40.4258239,9.874293359737951,-0.218809689,0.2929465358769431,0.010627558328283644,-0.023621404,0.018589326157912756,Campus
149,-59.11111111,0.078493872,0.041737313,0.007200951,-103.5517677,25.434559516906738,-31.42475945,-44.69238106,-28.32547144,-2.684243962,9.982289800366152,-0.209296479,0.5627982750426508,0.096130666,0.005644624,-0.002775247,0.035833759871401034,-0.047526997,0.024495026,-0.287627878,0.093584739,0.056134231,0.080718233,45,0.756780744,1.8995349407196045,14.819000244140625,1.523271918296814,181.44764709472656,154.89999389648438,-86.910439,40.4258095,9.982289800366152,-0.209296479,0.5627982750426508,0.056961506694698565,0.058086288519776784,0.007239129,Campus
150,-46.625,0.11013487287010383,0.021376687324678217,-0.037749472,-102.8907723,24.18027759552002,-30.86392548,-44.03175117,-29.57938734,-2.12340996,9.807227528210982,0.010584760746620233,-0.205109038,-0.668286151,0.001116496,4.4093495282882515E-4,0.041768269,0.011421391,-0.008389147,2.025385761723935,-0.127662089,-0.072360417,-0.092119194,45,0.6970263719558716,1.9095511436462402,14.605999946594238,1.4083893299102783,176.87257385253906,154.89999389648438,-86.9104384,40.4257945,9.807227528210982,0.010584760746620233,-0.205109038,0.088602506,0.037734646,-0.037710924,Campus
151,-41.77777778,0.11734642632739636,-0.046101177,-0.004645107,-103.771368,27.120477504730225,-33.44495739,-44.91173706,-26.63967556,-4.704197923,9.999719064,-0.218443797,-0.109303207,-0.994715866,0.010554543538674604,-0.007196395,0.094016887,-0.01182728,0.022915807266966032,2.953292302714968,0.055952225,0.010211808516562563,-0.22700339,45,0.6931607723236084,1.9195218086242676,14.003999710083008,1.3594952821731567,174.0966033935547,154.89999389648438,-86.9104418,40.4257791,9.999719064,-0.218443797,-0.109303207,0.095814062,-0.029758047,-0.004602111,Campus
152,-48.625,0.04398545,0.022159521431815855,-0.012437858,-104.1083319,27.323973445892335,-35.03925316,-45.24882313,-26.43715559,-6.299591894,9.879145844468793,-0.374691634,0.052160051,-0.990163152,0.014858113891429277,-0.007945751,0.13617304980176168,-0.011579638,0.032091803,2.8684370332551232,-0.06305064,-0.054715558,-0.063159239,45,0.30533093214035034,1.929546594619751,12.730999946594238,1.279301643371582,167.2012939453125,154.89999389648438,-86.91044,40.4257715,9.879145844468793,-0.374691634,0.052160051,0.022453084511194123,0.038515997,-0.012409688,Campus
153,-50.88888889,0.12057264920016661,-0.009687564,0.047709839,-102.4197302,24.604593524932863,-36.02171925,-43.5588792,-29.1562915,-7.281569858,9.703232686496476,0.076250895,0.36056120089680244,-0.988823879,-0.016729147,-0.010367421,0.14300407317367572,-0.02522839,-0.029734386,2.8538906041858265,-0.238971821,-0.218967911,0.11004670948079488,45,0.23357537388801575,1.9395270347595215,10.909000396728516,1.2263473272323608,165.9820556640625,154.89999389648438,-86.9104353,40.4257608,9.703232686496476,0.076250895,0.36056120089680244,0.099040284,0.006662981,0.047739491,Campus
154,-52.875,0.5876632317611314,0.065707595,-0.072004363,-102.0411639,29.57743537902832,-41.49024727,-43.18128914,-24.18259557,-12.75070777,10.202915168725527,-0.036082152,0.27959787488306087,-0.945162822,-0.019454143,-0.018389577,0.3046231625728237,-0.041801571,-0.026917499,2.5167788926837513,0.3430529196285507,-0.315901095,-0.123060106,45,0.23357537388801575,1.9395270347595215,10.909000396728516,1.2263473272323608,165.9820556640625,154.89999389648438,-86.9104353,40.4257608,10.202915168725527,-0.036082152,0.27959787488306087,0.5661308692352286,0.082055172,-0.071977675,Campus
155,-27.44444444,0.06426795,0.010013743890313774,0.056842892713284174,-102.7958559,43.636593170166016,-46.70281918,-43.93537121,-10.12355978,-17.96242569,10.241786188292272,-0.04354705,0.034315515372865986,-0.866358267,0.020071651719033592,-0.028777397,0.4959675713071545,-0.029071122,0.063849116,2.103861936087747,0.3304614650392995,0.6085673618374519,-0.255705575,45,0.22458311915397644,1.9595115184783936,7.672999858856201,1.1656014919281006,158.89437866210938,154.89999389648438,-86.9104322,40.4257379,10.241786188292272,-0.04354705,0.034315515372865986,0.042735585002499875,0.02638356,0.056896268,Campus
156,-19.44444444,0.23287365724811854,0.019312857,0.050461617,-102.8255017,42.34863933563233,-46.37000313,-43.96465118,-11.41090377,-17.62948776,9.945180749,-0.237757716,0.20668876857397336,-0.814679751,-0.013898349,0.015487165555914013,0.578801502,0.008732787,-0.040473068,1.9062399192921167,0.022099615300743326,-0.639066228,0.29046552646362667,45,0.25009775161743164,1.2906545400619507,5.802999973297119,1.1579458713531494,135.17140197753906,154.89999389648438,-86.9104226,40.4257278,9.945180749,-0.237757716,0.20668876857397336,0.2113412906623726,0.035672293600707665,0.050516475,Campus
157,-26.125,-0.110256448,-0.047832898,-0.162801174,-103.0982935,42.630703353881835,-46.54861107,-44.23927303,-11.12944984,-17.80919355,9.923360778,0.30299116822990396,0.8026206682897309,-0.833592437,-0.010759736,-0.001483146,0.549739087,-0.015014632,-0.016923807,1.9756919330763585,-0.024815601,0.14143147731868966,0.6440714,45,0.40264925360679626,1.300611138343811,4.484000205993652,1.5791114568710327,108.06443786621094,154.89999389648438,-86.9103971,40.4257285,9.923360778,0.30299116822990396,0.8026206682897309,-0.131788814,-0.031491252,-0.162775968,Campus
158,-37.88888889,-0.001834024,0.05809869,0.14169729001440326,-103.420984,46.784193153381345,-48.46840298,-44.56159706,-6.976447886,-19.72874162,9.671254806148196,0.12236790367723126,0.21879226924796155,-0.819717737,-0.009165338,-0.022446523,0.5712282813868477,-0.047086059,0.010896653746191448,1.9249511065992337,-0.231074699,0.20710503548673057,-0.233723057,45,0.4114203155040741,1.3106067180633545,4.5929999351501465,1.0699602365493774,105.49189758300781,154.89999389648438,-86.9103552,40.4257375,9.671254806148196,0.12236790367723126,0.21879226924796155,-0.02336639,0.074468507,0.14176104282417779,Campus
159,-42.875,0.030354409505469866,-0.005803048,0.018031742674513504,-106.3710657,45.68533916473389,-45.71852299,-47.51119122,-8.074813845,-16.97886164,9.721146907621216,0.2775064430299025,-0.104395599,-0.811687136,-0.004927931,0.016894218,0.582442514,0.022225161,-0.026712422,1.8971649293716137,-0.160919281,0.02102973,0.11017284735750693,45,0.40469324588775635,1.3206136226654053,4.9079999923706055,1.3772226572036743,103.22260284423828,154.89999389648438,-86.9103336,40.425738,9.721146907621216,0.2775064430299025,-0.104395599,0.008822045,0.010548864271885786,0.018083135633227918,Campus
160,-37.44444444,-0.045589668,0.033652939015402665,-0.123351115,-108.7220055,44.153263092041016,-47.9764991,-49.86200886,-9.60798784,-19.23622769,10.161173593650744,0.057029908,0.29572558773735774,-0.823704379,-0.010902048,0.004570324,0.5642835989739131,-0.004816809,-0.021697971,1.9399680767244505,0.27335841447404285,-0.156633291,0.24785623674109145,45,0.4040379226207733,1.3306726217269897,5.367000102996826,1.5436793565750122,99.22174835205078,154.89999389648438,-86.9103114,40.4257389,10.161173593650744,0.057029908,0.29572558773735774,-0.067122032,0.050013861,-0.123293292,Campus
161,-25,-0.37936135,-0.017053314,0.033998395,-109.8951579,38.07363733291626,-45.15903107,-51.03442902,-15.68651573,-16.41900371,10.175216938685445,-0.418793329,0.1752481249079687,-0.873291663,0.020271646293887228,0.009796009,0.4762667252600772,0.038526352,0.025611416627743362,2.1424531878776922,0.24107641849703002,-0.163625456,0.5583431986929144,45,0.42783793807029724,1.3407176733016968,5.737999916,1.458931803703308,102.69277954101562,154.89999389648438,-86.9102893,40.4257366,10.175216938685445,-0.418793329,0.1752481249079687,-0.400893721,-7.00E-04,0.034056218,Campus
162,-30.11111111,-0.158104173,-0.020042313,0.035575923,-105.0459022,26.204135494232176,-41.32444923,-46.18492893,-27.55601751,-12.58368975,9.906846180702876,0.034086109,0.1363850840032824,-0.938195092,-0.016895773,0.008993879,0.342292539,0.006989172,-0.037376264,2.442462520691955,-0.034975144,-0.335972716,0.20566541947496747,45,0.4078179597854614,1.3507471084594727,5.913000106811523,1.5491491556167603,115.9968262,154.89999389648438,-86.9102716,40.4257313,9.906846180702876,0.034086109,0.1363850840032824,-0.179636537,-0.003684357,0.035641159,Campus
163,-35.125,0.042562119,0.012362243648329116,0.1786090710010488,-102.5425839,24.01569953918457,-41.38581524,-43.68246517,-29.74530748,-12.64578777,9.442830252415925,0.724064068,-0.065430918,-0.935521508,-0.043492081,0.010603746004686328,0.34787505431082644,-0.01030513,-0.08861043,2.4292668555546735,-0.475487093,-0.155064684,-0.168340745,45,0.4051024615764618,1.3606013059616089,5.981999874,1.4530060291290283,134.0247802734375,154.89999389648438,-86.9102568,40.4257238,9.442830252415925,0.724064068,-0.065430918,0.021029749,0.028702407782598967,0.17869654588075806,Campus
164,-32.88888889,-0.073486999,-0.022782232,-0.033301554,-100.5406863,19.55586772918701,-41.12266155,-41.68020126,-34.203431,-12.38299974,9.831964410268343,1.5515873025243099,-0.064166184,-0.935080097,-0.077635488,0.027111284832641917,0.34278430695672635,-0.003051138,-0.164368806,2.4384651160934596,0.020227979,-0.081422509,-0.091721956,45,0.43502411246299744,1.3707042932510376,6.0279998779296875,1.2888704538345337,134.21546936035156,154.89999389648438,-86.9102481,40.4257136,9.831964410268343,1.5515873025243099,-0.064166184,-0.095019368,-0.006436135,-0.033271902,Campus
165,-27.875,0.070708535,0.014983550115325714,-0.093093419,-101.8155857,21.056833658218384,-40.16398529,-42.956199,-32.70234303,-11.42261574,9.958622941693056,1.1464611480591222,-0.114260186,-0.941438185,-0.055032948,0.021803097228858127,0.32966857483086076,0.005625152,-0.117724925,2.4687245239331883,0.12759590611874477,-0.010743654,-0.063583234,45,0.21203836798667908,1.3806989192962646,5.793000221252441,1.2601970434188843,133.68682861328125,154.89999389648438,-86.9102387,40.4257082,9.958622941693056,1.1464611480591222,-0.114260186,0.04917617,0.031341507,-0.093071178,Campus
166,-38.44444444,-0.018178636,0.026714189,-0.046194581,-104.613046,25.81288148880005,-40.07480305,-45.75365913,-27.9472714,-11.33526377,10.025116688996842,0.36456569435653613,-0.02191872,-0.941612235,-0.013719735,0.003579463,0.3352115377060418,-0.001956818,-0.027931845,2.457693718012097,0.085000117,0.099930833,-0.036068447,45,0.21203836798667908,1.3806989192962646,5.793000221252441,1.2601970434188843,133.68682861328125,154.89999389648438,-86.9102387,40.4257082,10.025116688996842,0.36456569435653613,-0.02191872,-0.039711003,0.043061767067326215,-0.046173823,Campus
167,-43.875,0.092260175,-0.055791704,0.15649995539852787,-106.5852982,22.169229640960694,-38.43585537,-47.72420319,-31.59104549,-9.696681788,10.12217990171562,0.40919009482180607,-0.304390848,-0.943126964,-0.025885325,0.011275349348191244,0.3259413470921007,0.002553846,-0.054652716,2.4750215914642926,0.19642293800428076,-0.133876336,-0.286598573,45,0.23122955858707428,1.3906513452529907,5.208000183105469,1.2218984365463257,146.85545349121094,154.89999389648438,-86.9102224,40.4256901,10.12217990171562,0.40919009482180607,-0.304390848,0.070727809,-0.039444127,0.15656815743462627,Campus
168,-39.55555556,-0.027370998,0.004640659,-0.029968582,-106.3541078,15.350527753829956,-40.61697113,-47.4955751,-38.41011333,-11.87767576,9.699379203388991,1.5778109897108912,-0.150384837,-0.932871959,-0.076463832,0.043871894,0.3482278698277705,0.028943784,-0.174435451,2.4295183246575514,-0.084162772,-0.152019593,0.12646117159029813,45,0.21349146962165833,1.4106178283691406,4.540999889373779,1.022007942199707,139.86044311523438,154.89999389648438,-86.9102102,40.4256872,9.699379203388991,1.5778109897108912,-0.150384837,-0.048903365,0.021000099549232758,-0.029935963,Campus
169,-39.75,-0.033584853,-0.040386402,0.031059233689470254,-108.4245703,17.049011688232422,-40.86194721,-49.56554928,-36.71089729,-12.12228573,9.600692707358055,1.415093236828892,-0.189837371,-0.952991547,-0.073246546,0.025920011,0.2913993321932279,0.006765313,-0.154899897,2.5485794819318333,-0.234618788,-0.127468926,-0.109680344,45,0.20174403488636017,1.4206651449203491,4.2230000495910645,0.9586251974105835,135.20053100585938,154.89999389648438,-86.9102004,40.425684,9.600692707358055,1.415093236828892,-0.189837371,-0.055117217,-0.024046237,0.031093006598194525,Campus
170,-55.66666667,-0.046597861,0.020368494,-0.026232332,-107.6188817,18.925005645751952,-39.53361118,-48.75888519,-34.83453726,-10.79309579,10.010324154085326,0.9959223986720865,0.13780799898255652,-0.960577798,-0.068288741,0.022718527453761655,0.26776207983493805,0.007356228,-0.143834279,2.598414312288599,0.16144094652342564,-0.430458796,0.21007839501699777,45,0.21087764203548431,1.4306652545928955,3.8940000534057617,0.9020636677742004,134.7343292236328,154.89999389648438,-86.9101883,40.4256847,10.010324154085326,0.9959223986720865,0.13780799898255652,-0.068130226,0.036708658,-0.026195266,Campus
171,-57.125,-0.523936444,-0.103117541,-0.012200637,-106.4170598,16.25161967277527,-34.55320538,-47.55718487,-37.5090213,-5.812811874,9.736926718,1.1604986502562913,0.32794157202690116,-0.986692921,-0.078458959,-0.00177296,0.10914533387743008,-0.021721413,-0.156318145,2.9193869030591353,-0.069543922,-0.385482944,0.11492051292680999,45,0.21087764203548431,1.4306652545928955,3.8940000534057617,0.9020636677742004,134.7343292236328,154.89999389648438,-86.9101883,40.4256847,9.736926718,1.1604986502562913,0.32794157202690116,-0.545468812,-0.086774412,-0.01217988,Campus
172,-55.88888889,-0.216923426,-0.006319007,-0.044451,-107.6689022,16.673373689651488,-28.88496346,-48.81000298,-37.08714527,-0.144691993,9.778679208848082,1.0303685994258205,0.2355100844389967,0.7846348083134994,0.042381123,0.006571125,0.023425327877957102,-0.015903847,-0.110264124,-2.24202335,-0.06011974,-0.059433995,0.078912582,45,0.22270303964614868,1.4505945444107056,3.996000051498413,0.6676578521728516,144.13966369628906,154.89999389648438,-86.9101716,40.4256841,9.778679208848082,1.0303685994258205,0.2355100844389967,-0.238455794,0.010021157,-0.044451,Campus
173,-56.88888889,-1.071387542,-0.053194121,-0.055968139,-109.6768998,22.50997559,-17.27007567,-50.81751293,-31.25005527,11.470439882278443,10.256482837269607,-0.01519907,-0.109953679,0.9194851477169296,0.027350733147084135,0.02657428,0.37133984166441614,-0.030152213,-0.069036881,-2.375111076,0.4434509092164271,-0.693933671,-0.405829196,45,0.1973785012960434,1.4606950283050537,4.0279998779296875,0.4415090084075928,162.64566040039062,154.89999389648438,-86.9101732,40.4256875,10.256482837269607,-0.01519907,-0.109953679,-1.092906564,-0.036853957,-0.05595183,Campus
174,-57.125,-0.903149533,-0.085195403,0.2065301261383371,-110.4950319,40.71469318389892,-5.940667877,-51.6344249,-13.04448369,22.798871517181396,9.553916706488682,1.402079037319009,-0.587834845,0.5948982311105265,0.05757487,0.056798444,0.7886725397943293,0.028885973,-0.160830091,-1.290011081,-0.175224989,-0.182595517,-0.320959094,45,0.21119536459445953,1.3758219480514526,3.885999917984009,0.36877110600471497,194.56680297851562,154.79998779296875,-86.9101734,40.4256901,9.553916706488682,1.402079037319009,-0.587834845,-0.924668556,-0.068847823,0.20659536212000054,Campus
175,-55.55555556,-0.118571087,-0.083131568,-0.267451764,-109.8047556,60.50467880249023,-8.642113824,-50.94463711,6.745501851737499,20.09852367401123,9.969681008348187,0.15659920337329647,-0.51641701,0.440901955,0.011058004862613054,0.013721312214258733,0.8959612499162989,0.006147729,-0.034797788,-0.913672749,0.1432522245981161,-0.157647914,-0.451752323,45,0.21971926093101501,1.3856642246246338,3.638000011444092,0.3651856482028961,255.36134338378906,154.79998779296875,-86.9101768,40.4256888,9.969681008348187,0.15659920337329647,-0.51641701,-0.140103454,-0.066791404,-0.267445833,Campus
176,-48.125,0.047235395,0.041113578521158295,0.062132951,-109.0165138,65.48203472137452,-8.885991826,-50.15676113,11.722003784179687,19.854401626586913,9.908408544595959,-0.238747946,0.004016109,0.44220435098536964,0.001987278,-0.010152105,0.8966848884971397,0.012296621303002856,0.016381183721111563,-0.916371445,0.002698528,-0.081481351,0.1284450409047812,45,0.19311660528182983,1.3956228494644165,3.4679999351501465,0.21219736337661743,281.18963623046875,154.79998779296875,-86.9101811,40.4256888,9.908408544595959,-0.238747946,0.004016109,0.025703029250454843,0.057453743,0.062140364443444764,Campus
177,-47.44444444,0.034033977,0.09830786,0.048812923,-108.7475039,61.90719089508057,-6.375597868,-49.88689716,8.146793851852417,22.36479560852051,9.902978165635785,0.10366381374775495,-0.527077264,0.4671973733647356,0.025363494,-0.00555698,0.8836414003835141,0.049996024,-0.014033265,-0.972233243,-0.004220898,-0.039105434,-0.020295068,45,0.13907815515995026,1.4055713415145874,3.446000099182129,0.12298578768968582,283.84405517578125,154.79998779296875,-86.9101816,40.4256891,9.902978165635785,0.10366381374775495,-0.527077264,0.012501612,0.11465395487465181,0.048823302,Campus
178,-45.75,-0.036527776,-0.108727847,-0.021321831,-108.6094001,58.58354473114014,-4.79411191,-49.7495248,4.822049909830094,23.946769580841064,9.828661317,0.5424041096573171,-0.690140582,0.4728374466734025,0.043408911,0.007560581,0.8797147048329844,0.06932123,-0.054702459,-0.984117093,-0.070690405,-0.003790819,-0.013370409,0,0.12352578341960907,1.4155704975128174,3.4630000591278076,0.099537574,0,154.79998779296875,-86.9101816,40.4256899,9.828661317,0.5424041096573171,-0.690140582,-0.058060142,-0.092378786,-0.021308487,Campus
179,-55.8,0.023227779,0.016561440457067242,-0.003312911,-109.2849292,61.10547796885172,-7.527399853,-50.42437812,7.345670695106189,21.21325792868932,9.941546303885323,0.26082987657615114,-0.197108765,0.4704865106602305,0.015119517,0.006157187,0.8822443810934874,0.020889580393805333,-0.02510956,-0.979573595,0.014638628278459822,0.013716682943762565,0.010654527541934227,0,0.11428597569465637,1.1218923330307007,3.5439999103546143,0.086085163,0,154.6999969482422,-86.9101812,40.4256914,9.941546303885323,0.26082987657615114,-0.197108765,0.001695413,0.032901605,-0.003312911,Campus
