seconds_elapsed,orientation_qz,orientation_qy,orientation_qx,orientation_qw,orientation_roll,orientation_pitch,orientation_yaw,accelerometerUncalibrated_z,accelerometerUncalibrated_y,accelerometerUncalibrated_x,totalAcceleration_z,totalAcceleration_y,totalAcceleration_x,location_bearingAccuracy,location_speedAccuracy,location_verticalAccuracy,location_horizontalAccuracy,location_speed,location_bearing,location_altitude,location_longitude,location_latitude,accelerometer_z,accelerometer_y,accelerometer_x,gyroscopeUncalibrated_z,gyroscopeUncalibrated_y,gyroscopeUncalibrated_x,magnetometerUncalibrated_z,magnetometerUncalibrated_y,magnetometerUncalibrated_x,gyroscope_z,gyroscope_y,gyroscope_x,magnetometer_z,magnetometer_y,magnetometer_x,microphone_dBFS,class
0,-0.170154865,0.003412601,-0.015794114,0.9842446740468344,0.001355771,0.032337618,0.3426168402036031,9.897634494,-0.323947296,-0.018934345,9.895576418899909,-0.322520393,-0.020681866,45,1.5,1,17.44499969482422,0,0,149.39999389648438,-86.9109921,40.4279977,0.014208170572916666,-0.004094487,-0.003907763,-0.021322641,0.012125318199396133,0.00118708,-111.4301056,31.858422426077034,-59.05394231,2.0972421082357567E-4,-0.002535016,5.762325382481019E-4,-70.44203653,34.05645170211792,-10.81590977,-114.25,Classroom
1,-0.164101543,0.002876756,-0.015772411,0.986313076,4.984579988108502E-4,0.03206282,0.32972908540836815,9.876915561342702,-0.319778677,-0.017751608,9.876915561342702,-0.319778677,-0.017751608,45,1.5,1,17.44499969482422,0,0,149.39999389648438,-86.9109921,40.4279977,-0.007177918,-0.002684324,-0.012703181,-0.02144489,0.011847768232081701,0.001819198,-111.4269898,31.883967323303224,-59.05531887,8.74756872699171E-5,-0.002812566,0.001208351,-70.44694717,34.103757514953614,-10.81590975,-118.5,Classroom
2,-0.164289314,0.003028127,-0.015907077,0.986278986,7.464705754850561E-4,0.032378594032846965,0.3301065555558755,9.87556239,-0.324816963,-0.022606947,9.87556239,-0.324816963,-0.022606947,45,1.5,1,17.44499969482422,0,0,149.39999389648438,-86.9109921,40.4279977,-6.09E-04,-0.004685993,-0.015195804,-0.021027242,0.012968757346523209,7.048236819593093E-5,-111.3779456,31.852613353729247,-59.0355547,5.051236825798136E-4,-0.001691577,-5.40E-04,-70.39790268,34.07289134979248,-10.79529181,-113.5555556,Classroom
3,-0.165216866,0.003538377,-0.016064569,0.9861200469211467,0.001671141,0.032858332,0.3319736826188356,9.899089859527292,-0.32335339,-0.028995551,9.899089859527292,-0.32335339,-0.028995551,45,1.5,1,17.44499969482422,0,0,149.39999389648438,-86.9109921,40.4279977,0.014029901,0.001680227,-0.012406992,-0.021350001,0.012630601630555195,6.093645922713054E-4,-111.4825001,31.869937324523924,-58.99675877,1.8236457621136193E-4,-0.002029733,-1.48E-06,-70.50245697,34.089971466064455,-10.75686181,-125.5555556,Classroom
4,-0.16486401,0.003508816,-0.015857975,0.9861825594624269,0.001692712,0.032440368,0.3312569156433772,9.934686012638425,-0.320109723,-0.028135993,9.934686012638425,-0.320109723,-0.028135993,45,1.5,1,17.44499969482422,0,0,149.39999389648438,-86.9109921,40.4279977,0.016593526,0.001866865,-0.011278664,-0.021539778,0.012571296084997723,7.754201696760664E-4,-111.3925856,31.86859535217285,-58.9859008,-7.41E-06,-0.002089038,1.645728971727771E-4,-70.41242088,34.08838523864746,-10.74563776,-124.25,Classroom
5,-0.164531236,0.003447195,-0.015708667,0.9862407463268169,0.001631236,0.032124933759564336,0.33058245465593433,9.936797197582653,-0.319505708,-0.028693544,9.936797197582653,-0.319505708,-0.028693544,0,1.5,1,16.597000122070312,0.029826756566762924,0,149.39999389648438,-86.9109896,40.4279961,0.00137968,-1.01E-04,-0.01241802,-0.021326278,0.012440823823285914,7.516979494186354E-4,-111.3973438,31.909831314086915,-58.99627098,2.0608681398760347E-4,-0.002219511,1.408506763502232E-4,-70.41717903,34.12974346160889,-10.75612974,-132.3333333,Classroom
6,-0.164478266,0.003459301,-0.015894914,0.9862465603837689,0.001595552,0.032496288,0.33047630775322034,9.897381709172176,-0.325953062,-0.028483793,9.897381709172176,-0.325953062,-0.028483793,0,1.5,1,16.597000122070312,0.029826756566762924,0,149.39999389648438,-86.9109896,40.4279961,-0.019118652,-0.003064654,-0.012732759,-0.021397445,0.012440823759992146,7.16114610555645E-4,-111.5493559,31.910319137573243,-58.97711685,1.349201419128521E-4,-0.002219511,1.0526733522674123E-4,-70.5693132,34.13010948181152,-10.73685375,-133.75,Classroom
7,-0.164758111,0.003574168,-0.016092816,0.9861962042965935,0.001747764,0.032925058,0.3310421913572886,9.883298383175749,-0.325856562,-0.028011125,9.883298383175749,-0.325856562,-0.028011125,0,1.5,1,16.597000122070312,0.029826756566762924,0,149.39999389648438,-86.9109896,40.4279961,-0.007833175,-0.003582752,-0.009245123,-0.02155164,0.012772934999570105,8.94031265311992E-4,-111.4772536,31.888237285614014,-59.10192291,-1.93E-05,-0.001887399,2.8318400411116125E-4,-70.49745468,34.10802719116211,-10.86153775,-131.6666667,Classroom
8,-0.165189779,0.003536278,-0.016196917,0.9861224079595029,0.001624152,0.033118697,0.33192003496642253,9.886356205616183,-0.328472985,-0.029521159,9.886356205616183,-0.328472985,-0.029521159,0,1.5,1,16.597000122070312,0.029826756566762924,0,149.39999389648438,-86.9109896,40.4279961,2.780099516933404E-4,0.001666711,-0.015450533,-0.021812585,0.012203601551201483,4.7889240572084355E-4,-111.4692016,31.898973407745363,-59.02603893,-2.80E-04,-0.002456733,-1.32E-04,-70.48903687,34.11888526916504,-10.78601976,-123.25,Classroom
9,-0.165020212,0.003455755,-0.016185218,0.9861512479272861,0.00147481,0.033068816,0.33157848,9.892111769000303,-0.32643444,-0.026129391,9.892111769000303,-0.32643444,-0.026129391,0,1.5,1,16.597000122070312,0.029826756566762924,0,149.39999389648438,-86.9109896,40.4279961,0.002240005,0.001804418,-0.011018827,-0.02197864,0.012144296009599874,7.516979454627749E-4,-111.47152,31.902389183044434,-59.10582706,-4.46E-04,-0.002516038,1.4085065318018342E-4,-70.49135513,34.122423515319824,-10.86605175,-118.8888889,Classroom
10,-0.164252607,0.003059132,-0.016124611,0.9862817588907021,7.377068630795783E-4,0.032817662,0.3300333177814117,9.902060638353662,-0.326335708,-0.018123308,9.902060638353662,-0.326335708,-0.018123308,0,1.5,1,16.597000122070312,0.029826756566762924,0,149.39999389648438,-86.9109896,40.4279961,0.007118665,-0.001675196,-0.010549219,-0.021555859,0.012451886611345869,8.457884894316801E-4,-111.4089339,31.87957529067993,-59.05019505,-2.35E-05,-0.002208448,2.3494121426035865E-4,-70.42889122,34.09985336303711,-10.8098098,-121.4444444,Classroom
11,-0.164200544,0.002992351,-0.016038701,0.9862920219458423,6.358764118523997E-4,0.032626179,0.3299289487519311,9.909590443361152,-0.324564323,-0.017423466,9.909590443361152,-0.324564323,-0.017423466,0,1.5,1,16.597000122070312,0.029826756566762924,0,149.39999389648438,-86.9109896,40.4279961,0.002136055,-0.001095817,-0.011051955,-0.021563501,0.012547573852307588,0.001107531,-111.508974,31.955947456359862,-59.06141891,-3.11E-05,-0.002112761,4.9668403672398E-4,-70.52868637,34.17549308776856,-10.82078977,-104.75,Classroom
12,-0.164146696,0.002951654,-0.015922509,0.9863030013528843,5.955051964723044E-4,0.032383507931406055,0.32981983174398105,9.902594936704173,-0.320713736,-0.017101132,9.902594936704173,-0.320713736,-0.017101132,0,1.5,1,16.597000122070312,0.029826756566762924,0,149.39999389648438,-86.9109896,40.4279961,-0.002057076,2.6593393492467196E-4,-0.011128181,-0.021539778,0.012689907176112666,8.584479507492874E-4,-111.5281281,31.87066915512085,-59.0547089,-7.41E-06,-0.001970427,2.476006714645231E-4,-70.54796272,34.09058147,-10.81420182,-122.8888889,Classroom
13,-0.164151848,0.002974034,-0.01593481,0.9863018740728063,6.354655527952806E-4,0.032415136,0.32982970701838005,9.901642410500536,-0.320086492,-0.016752662,9.901642410500536,-0.320086492,-0.016752662,0,1.5,1,16.597000122070312,0.029826756566762924,0,149.39999389648438,-86.9109896,40.4279961,-0.001044977,0.001143256,-0.010384921,-0.021693973,0.012808518267227608,9.933679909400135E-5,-111.4970176,31.861519317626954,-59.00932514,-1.62E-04,-0.001851816,-5.12E-04,-70.51673119,34.081187324523924,-10.76979369,-127.125,Classroom
14,-0.16401115,0.002924059,-0.015941409,0.9863253287898684,5.392851288208865E-4,0.032411666,0.3295459478225523,9.905080702698346,-0.320992512,-0.015684023,9.905080702698346,-0.320992512,-0.015684023,0,1.5,1,16.597000122070312,0.029826756566762924,0,149.39999389648438,-86.9109896,40.4279961,0.001367708,2.356238156846426E-4,-0.010267649,-0.021492334,0.012725490452812134,9.889201825095829E-4,-111.5273963,31.885553245544433,-59.09167488,4.0031251276038514E-5,-0.001934844,3.7807289418285186E-4,-70.54710838,34.10546527862549,-10.8511677,-127.5555556,Classroom
15,-0.164279848,0.002905863,-0.01585178,0.9862820668127931,5.240213954096458E-4,0.032229012,0.33009062519351257,9.907853172375606,-0.319568365,-0.016442028,9.907853172375606,-0.319568365,-0.016442028,0,1.5,1,172.71600341796875,0.027054209262132645,0,149.39999389648438,-86.9109895,40.4279936,0.002206775,-9.90E-05,-0.0110454,-0.021492334,0.012903407175383233,8.465868502276615E-4,-111.5979116,31.88225929260254,-59.08154877,4.003125579702189E-5,-0.001756927,2.3573960089441208E-4,-70.61799057,34.10253734588623,-10.84226177,-117,Classroom
16,-0.164582251,0.002940417,-0.015850688,0.9862315834147258,5.826917895143037E-4,0.032238391,0.33070293589703087,9.945755801154572,-0.317966636,-0.016168976,9.945755801154572,-0.317966636,-0.016168976,0,1.5,1,172.71600341796875,0.027054209262132645,0,149.39999389648438,-86.9109895,40.4279936,0.019799566,0.00203466,-0.010894203,-0.021741418,0.012761074,5.50059041062605E-4,-111.5139762,31.92105531692505,-59.12729885,-2.09E-04,-0.001899261,-6.08E-05,-70.53417625,34.140601348876956,-10.88752377,-102.1111111,Classroom
17,-0.164432092,0.002866797,-0.015492486,0.98626256,5.601799546162263E-4,0.031507324,0.3303970460174153,9.961529879894071,-0.313326187,-0.015219397,9.961529879894071,-0.313326187,-0.015219397,0,1.5,1,172.71600341796875,0.027054209262132645,0,149.39999389648438,-86.9109895,40.4279936,0.008589948,6.669282334522136E-4,-0.009080154,-0.021409306,0.012903407207030116,8.46586860964997E-4,-111.5090957,31.897387371063232,-59.02237881,1.2305902782827616E-4,-0.001756927,2.3573954777285746E-4,-70.52917442,34.117177391052245,-10.78211579,-123.125,Classroom
18,-0.164483435,0.002924586,-0.015465634,0.9862542563271754,6.814258516702837E-4,0.031473383379792705,0.33049917423609393,9.959491359,-0.313465576,-0.017449601,9.959491359,-0.313465576,-0.017449601,0,1.5,1,172.71600341796875,0.027054209262132645,0,149.39999389648438,-86.9109895,40.4279936,-6.44E-05,1.464726276768064E-4,-0.01061174,-0.021622806,0.012974573859890688,5.026145858545471E-4,-111.4945778,31.907513275146485,-59.07178875,-9.04E-05,-0.001685761,-1.08E-04,-70.51477875,34.12766948699951,-10.8320138,-127.3333333,Classroom
19,-0.164535937,0.002964333,-0.01556412,0.9862438319967344,7.257605466293171E-4,0.031680815,0.330605421,9.945988090292921,-0.316462411,-0.017705145,9.945988090292921,-0.316462411,-0.017705145,0,1.5,1,172.71600341796875,0.027054209262132645,0,149.39999389648438,-86.9109895,40.4279936,-0.007079299,-8.55E-04,-0.010418039,-0.021532365,0.012804298455683658,7.635590451312824E-4,-111.5377657,31.91312520980835,-59.08069477,-2.80E-12,-0.001856036,1.5271176604213766E-4,-70.55784531,34.133281517028806,-10.84128581,-128.875,Classroom
20,-0.16438133,0.002910196,-0.015450051,0.9862715659789669,6.614113435628417E-4,0.031437836,0.3302923574030978,9.946130447017337,-0.313140338,-0.016984975,9.946130447017337,-0.313140338,-0.016984975,0,1.5,1,172.71600341796875,0.027054209262132645,0,149.39999389648438,-86.9109895,40.4279936,9.094997517113546E-4,-2.61E-04,-0.01033237,-0.021516056,0.012784796034537473,8.465868360995885E-4,-111.4937238,31.84895341873169,-59.0730088,1.6309025932501242E-5,-0.001875538,2.3573955624970128E-4,-70.51380272,34.06910957336426,-10.83274573,-129.3333333,Classroom
21,-0.164538776,0.00295818,-0.015465582,0.9862448926110869,7.459543070651916E-4,0.031484395229411356,0.3306104254375384,9.94845357,-0.313755967,-0.018675052,9.94845357,-0.313755967,-0.018675052,0,1.5,1,172.71600341796875,0.027054209262132645,0,149.39999389648438,-86.9109895,40.4279936,8.825283606075546E-4,-3.52E-04,-0.011186655,-0.021504195,0.012796657168966474,6.212257289607982E-4,-111.495066,31.854077339172363,-59.01139896,2.8170140582200103E-5,-0.001863677,1.0378491495130132E-5,-70.51526688,34.07435523986816,-10.77150172,-109.2222222,Classroom
22,-0.164769968,0.002924559,-0.015499355,0.9862058943915135,6.611074625573221E-4,0.031540105354438706,0.3310807208413059,9.944478072,-0.316323023,-0.016915281,9.944478072,-0.316323023,-0.016915281,0,1.5,1,172.71600341796875,0.027054209262132645,0,149.39999389648438,-86.9109895,40.4279936,-0.002427601,-0.002373053,-0.010264605,-0.021587223,0.012737351623409002,0.001178698,-111.452244,31.845415420532227,-59.04751083,-5.49E-05,-0.001922983,5.678506794123395E-4,-70.47207924,34.06508343,-10.80785772,-128.625,Classroom
23,-0.164753393,0.002941855,-0.015447376,0.9862094255327021,7.12901516591461E-4,0.031443244,0.33104607028868593,9.943060967528705,-0.312486958,-0.018123308,9.943060967528705,-0.312486958,-0.018123308,0,1.5,1,172.71600341796875,0.027054209262132645,0,149.39999389648438,-86.9109895,40.4279936,-6.24E-04,3.963639435258884E-4,-0.010960313,-0.02155164,0.012784796106873208,4.195868369933326E-4,-111.5188557,31.81430534362793,-59.04324081,-1.93E-05,-0.001875538,-1.91E-04,-70.53893471,34.034339332580565,-10.80395378,-118.4444444,Classroom
24,-0.16501112,0.002987619,-0.01565741,0.9861628418987237,7.256071750940394E-4,0.031872926,0.3315695448986535,9.933035382857689,-0.320163695,-0.017782239,9.933035382857689,-0.320163695,-0.017782239,0,1.5,1,172.71600341796875,0.027054209262132645,0,149.39999389648438,-86.9109895,40.4279936,-0.005928688,-0.002933487,-0.010628116,-0.021575362,0.012832241,6.330868786481182E-4,-111.5064123,31.86700933456421,-59.03360283,-4.30E-05,-0.001828094,2.223962027290203E-5,-70.52612511,34.08716510772705,-10.7937058,-101,Classroom
25,-0.165200195,0.003041613,-0.015603007,0.9861319059307135,8.440419075924686E-4,0.031783574957002715,0.33195091624861783,9.932737470830528,-0.31675861,-0.017867764,9.932737470830528,-0.31675861,-0.017867764,0,1.5,1.1987663507461548,17.017000198364258,0.017069993540644646,0,149.39999389648438,-86.9109901,40.4279961,2.341316741647072E-4,-9.13E-04,-0.009526686,-0.02112464,0.013294824,7.754201894553686E-4,-111.46481,31.82247938156128,-59.03860493,4.077257019992086E-4,-0.001365511,1.645729045193751E-4,-70.48476685,34.04263534545898,-10.79882977,-107.4444444,Classroom
26,-0.166347004,0.003600648,-0.015787563,0.9859342592433818,0.001848524,0.032334619,0.33426215145194416,9.904003282195156,-0.320597579,-0.030226809,9.904003282195156,-0.320597579,-0.030226809,0,1.5,1.1987663507461548,17.017000198364258,0.017069993540644646,0,149.39999389648438,-86.9109901,40.4279961,-0.015564678,1.9682495339402875E-4,-0.011403543,-0.021421168,0.013579490612649802,7.516979658072E-4,-111.5922998,31.779901371002197,-59.00139503,1.1119790074587302E-4,-0.001080844,1.4085066109190432E-4,-70.61237869,33.99981369018555,-10.76137578,-120.25,Classroom
27,-0.166415041,0.003643086,-0.015946681,0.9859200964853602,0.001877034,0.032662656,0.33440029273912747,9.890038351410801,-0.327819606,-0.028902626,9.890038351410801,-0.327819606,-0.028902626,0,1.5,1.1987663507461548,17.017000198364258,0.017069993540644646,0,149.39999389648438,-86.9109901,40.4279961,-0.008361946,-0.004447051,-0.010370644,-0.021504195,0.012761073892267005,0.001036365,-111.6081598,31.82089328765869,-58.98175297,2.8170122498266616E-5,-0.001899261,4.255173437396806E-4,-70.62811707,34.04092731,-10.74197771,-113.5555556,Classroom
28,-0.166285306,0.003617694,-0.015957226,0.9859419149848131,0.001827741,0.032674756581680134,0.3341379394898048,9.892126314848372,-0.323475356,-0.027369361,9.892126314848372,-0.323475356,-0.027369361,0,1.5,1.1987663507461548,17.017000198364258,0.017069993540644646,0,149.39999389648438,-86.9109901,40.4279961,1.63114987886869E-4,1.9008265091822698E-4,-0.00918406,-0.021591101,0.012710321963263245,5.521119181559278E-4,-111.5452073,31.796371459960938,-58.94698296,-5.87E-05,-0.001950012,-5.87E-05,-70.56528694,34.01652717590332,-10.70745178,-128,Classroom
29,-0.16623428,0.003613351,-0.015953691,0.9859505845505057,0.00182204,0.032666257,0.334034512,9.897051329751617,-0.323913845,-0.029831878,9.897051329751617,-0.323913845,-0.029831878,0,1.5,1.1987663507461548,17.017000198364258,0.017069993540644646,0,149.39999389648438,-86.9109901,40.4279961,0.00225818,-4.60E-04,-0.011735045,-0.021539779,0.012808518321479409,8.465868366647113E-4,-111.5719267,31.778559436798094,-59.05397694,-7.41E-06,-0.001851816,2.3573955624970128E-4,-70.59176132,33.99859359741211,-10.8137138,-121.5555556,Classroom
30,-0.166169182,0.003596385,-0.01592903,0.9859620315357319,0.001798929,0.032611842,0.33390273139314747,9.900968810887013,-0.323013634,-0.028600619,9.900968810887013,-0.323013634,-0.028600619,0,1.5,1.1987663507461548,17.017000198364258,0.017069993540644646,0,149.39999389648438,-86.9109901,40.4279961,0.00297726,1.1877238171771893E-5,-0.010726059,-0.021468612,0.012689907,5.85642389532685E-4,-111.5675333,31.757941303253173,-59.00908077,6.375347266371533E-5,-0.001970427,-2.52E-05,-70.58761253,33.977487335205076,-10.76991575,-137.5555556,Classroom
31,-0.166112647,0.0036056,-0.015823171,0.9859732210057454,0.001854152,0.032405992,0.33378678675994133,9.933010416123473,-0.318413839,-0.028786469,9.933010416123473,-0.318413839,-0.028786469,0,1.5,1.1987663507461548,17.017000198364258,0.017069993540644646,0,149.39999389648438,-86.9109901,40.4279961,0.01750647,0.003139319,-0.010333167,-0.021622806,0.012855962759733778,6.449479497833521E-4,-111.5406936,31.76330934524536,-59.02555096,-9.04E-05,-0.001804372,3.4100679540554587E-5,-70.56065056,33.98297744750977,-10.78553176,-127.625,Classroom
32,-0.165914154,0.003570416,-0.015566094,0.9860108697298661,0.001876621,0.031886847,0.33338288543293776,9.957203096556432,-0.316044248,-0.029669258,9.957203096556432,-0.316044248,-0.029669258,0,1.5,1.1987663507461548,17.017000198364258,0.017069993540644646,0,149.39999389648438,-86.9109901,40.4279961,0.011978482737124544,0.001300513,-0.010937651,-0.021551639,0.012867824,7.516979460278978E-4,-111.5613123,31.82845743179321,-58.96613655,-1.93E-05,-0.001792511,1.4085067521997738E-4,-70.58151276,34.04873535,-10.72587375,-131.5555556,Classroom
33,-0.165875578,0.003587486,-0.015514634,0.9860181096688058,0.001928627,0.031790929,0.3333036459765388,9.955117317346426,-0.318130373,-0.028897935,9.955117317346426,-0.318130373,-0.028897935,0,1.5,1.1987663507461548,17.017000198364258,0.017069993540644646,0,149.39999389648438,-86.9109901,40.4279961,4.4173638797500756E-4,-0.001440112,-0.009705002,-0.021587223,0.012855962750691813,7.398368336386906E-4,-111.5382539,31.779413375854492,-58.9960268,-5.49E-05,-0.001804372,1.289895605702785E-4,-70.55833275,33.999447441101076,-10.7560078,-136.5,Classroom
34,-0.165919175,0.003632627,-0.015553422,0.9860099953355141,0.002003408,0.031882512,0.33339105387335843,9.949391578,-0.318065369,-0.031458068,9.949391578,-0.318065369,-0.031458068,0,1.5,1.1987663507461548,17.017000198364258,0.017069993540644646,0,149.39999389648438,-86.9109901,40.4279961,-0.002360964,-6.96E-04,-0.011244756,-0.021527917,0.013010157245093757,7.75420171936558E-4,-111.6082819,31.79612735748291,-58.9933429,4.447913543294066E-6,-0.001650177,1.645728999983917E-4,-70.6282386,34.01579544067383,-10.75381173,-140.6666667,Classroom
35,-0.165965157,0.003681622,-0.015512945,0.9860026986853591,0.002112027,0.031819047,0.33348252125156735,9.947161331917476,-0.315295039,-0.031922693,9.947161331917476,-0.315295039,-0.031922693,0,1.5,1,17.309999465942383,0.009001628,0,149.39999389648438,-86.9109893,40.4279955,-0.001660338,0.001636753,-0.010076044,-0.021587223,0.013057601629096327,7.516979426371602E-4,-111.5482578,31.799787311553956,-59.0326268,-5.49E-05,-0.001602733,1.4085066504776478E-4,-70.56845856,34.019577484130856,-10.79285177,-136.875,Classroom
36,-0.16601929,0.003699612,-0.015620775,0.9859918083959412,0.002109942,0.032037840921033935,0.3335927105644374,9.916214267027032,-0.322316695,-0.029460177,9.916214267027032,-0.322316695,-0.029460177,0,1.5,1,17.309999465942383,0.009001628,0,149.39999389648438,-86.9109893,40.4279955,-0.01750709,-0.003942442,-0.009245922,-0.021634667,0.012903407207030116,6.686701570429559E-4,-111.5323975,31.801983432769774,-59.01579082,-1.02E-04,-0.001756927,5.782288566991253E-5,-70.55235481,34.02226131439209,-10.77552774,-131.1111111,Classroom
37,-0.166308769,0.003827426,-0.015874669,0.9859384991801702,0.002268227,0.032581733,0.3341782640379209,9.890723700662262,-0.326196321,-0.030830823,9.890723700662262,-0.326196321,-0.030830823,0,1.5,1,17.309999465942383,0.009001628,0,149.39999389648438,-86.9109893,40.4279955,-0.012680686,-0.0030976,-0.008368503,-0.021638089,0.013027492686747931,7.283178677495855E-4,-111.5851019,31.809913272857667,-59.005177,-1.06E-04,-0.001632842,1.1747059481702029E-4,-70.60505898,34.030313377380374,-10.76479177,-142.3333333,Classroom
38,-0.166177019,0.003752475,-0.015996979,0.9859590275773724,0.00208403,0.032797765095257066,0.3339143424358183,9.891374245,-0.324337817,-0.03006419,9.891374245,-0.324337817,-0.03006419,0,1.5,1,17.309999465942383,0.009001628,0,149.39999389648438,-86.9109893,40.4279955,-0.00113828,3.4945393071591276E-4,-0.009379895,-0.021670251,0.012986435003361656,7.042535055130359E-4,-111.5883957,31.809425354003906,-59.03506687,-1.38E-04,-0.001673899,9.34062347051154E-5,-70.60835251,34.02970336914063,-10.79529176,-130.5,Classroom
39,-0.166109619,0.003736956,-0.015977444,0.9859707633268486,0.002062151,0.032753933,0.33377790595721274,9.897321479,-0.32403581,-0.030389428,9.897321479,-0.32403581,-0.030389428,0,1.5,1,17.309999465942383,0.009001628,0,149.39999389648438,-86.9109893,40.4279955,0.002713342,2.8634997247492224E-4,-0.009917436,-0.021433028,0.012737352,6.212257199188315E-4,-111.5441097,31.779779300689697,-58.97089489,9.933680983133686E-5,-0.001922983,1.037844572017349E-5,-70.564189,33.999691276550294,-10.73075377,-133.5555556,Classroom
40,-0.166010416,0.00369788,-0.015980621,0.985987564,0.001987293,0.032747017,0.33357787942423406,9.900155585946388,-0.323919652,-0.029134939,9.900155585946388,-0.323919652,-0.029134939,0,1.5,1,17.309999465942383,0.009001628,0,149.39999389648438,-86.9109893,40.4279955,0.001811028,4.563589119216771E-4,-0.009395503,-0.021551639,0.013093185,7.63559057851982E-4,-111.5620435,31.76831144332886,-59.07557076,-1.93E-05,-0.001567149,1.5271178591381578E-4,-70.58200096,33.98822315216064,-10.83518577,-123.125,Classroom
41,-0.165821317,0.00364319,-0.015814538,0.9860222565317617,0.001940765,0.032400892161339234,0.33319444766322387,9.935432360010239,-0.32129452,-0.028414769,9.935432360010239,-0.32129452,-0.028414769,0,1.5,1,17.309999465942383,0.009001628,0,149.39999389648438,-86.9109893,40.4279955,0.019245555099931734,2.2855574644885016E-4,-0.00910191,-0.021575362,0.012903407179904215,7.04253504947913E-4,-111.5813201,31.78368335723877,-58.9727248,-4.30E-05,-0.001756927,9.340623527023833E-5,-70.60152077,34.00396167755127,-10.73246176,-119.6666667,Classroom
42,-0.165684954,0.003616284,-0.015644586,0.9860479883777286,0.001948521,0.032056453,0.332917161,9.954171098195589,-0.315127841,-0.030738568,9.954171098195589,-0.315127841,-0.030738568,0,1.5,1,17.309999465942383,0.009001628,0,149.39999389648438,-86.9109893,40.4279955,0.009476402,0.003603096,-0.010967433,-0.021480473,0.013010157217967857,6.805312779090068E-4,-111.5431337,31.754037437438964,-59.0638588,5.1892356318647714E-5,-0.001650177,6.968400258010307E-5,-70.56296898,33.97407138824463,-10.82396179,-127.125,Classroom
43,-0.165624514,0.003613001,-0.015534665,0.9860598977329662,0.001980427,0.031838413,0.3327936819456156,9.955899173773608,-0.318692614,-0.030342966,9.955899173773608,-0.318692614,-0.030342966,0,1.5,1,17.309999465942383,0.009001628,0,149.39999389648438,-86.9109893,40.4279955,0.002072834,-0.001229772,-0.011236709,-0.021539778,0.012689907,7.754201691109434E-4,-111.574366,31.79966532,-59.007495,-7.41E-06,-0.001970427,1.6457289604253125E-4,-70.59444496,34.019455375671384,-10.7671097,-126.3333333,Classroom
44,-0.165799911,0.003711886,-0.015520509,0.986030274,0.002174571,0.031843648,0.33314639214173103,9.952321635866628,-0.318971392,-0.031969156,9.952321635866628,-0.318971392,-0.031969156,0,1.5,1,17.309999465942383,0.009001628,0,149.39999389648438,-86.9109893,40.4279955,-0.001401911,-0.001533222,-0.010048573,-0.021539778,0.012998296110664756,7.042535015571754E-4,-111.5371556,31.839681339263915,-59.03897095,-7.41E-06,-0.001662038,9.340622848876328E-5,-70.55711311,34.05959347,-10.79882978,-125,Classroom
45,-0.165793891,0.003711882,-0.015566248,0.986030571,0.002159579,0.031933837,0.33313455685828497,9.947954103784653,-0.319180472,-0.030691435,9.947954103784653,-0.319180472,-0.030691435,0,1.5,1,16.30500030517578,0.026126768440008163,0,149.39999389648438,-86.910989,40.4279979,-0.00221421,-0.001621836,-0.008833373,-0.021610945,0.012962712734503654,9.058923963502556E-4,-111.5940075,31.792101440429686,-58.99919865,-7.86E-05,-0.001697622,2.950451255423351E-4,-70.61408669,34.01201343536377,-10.75917978,-121.8888889,Classroom
46,-0.165727377,0.003684427,-0.015638499,0.9860407148416226,0.002083601,0.032067116,0.33300106485302633,9.916260784112135,-0.321062206,-0.031411605,9.916260784112135,-0.321062206,-0.031411605,0,1.5,1,16.30500030517578,0.026126768440008163,0,149.39999389648438,-86.910989,40.4279979,-0.018015531,-0.002090398,-0.010800031,-0.021426642,0.012804298446728634,9.162708760973496E-4,-111.56973,31.874451293945313,-59.0748386,1.0572356348767734E-4,-0.001856036,3.0542361156012E-4,-70.58956474,34.09472923278808,-10.83445374,-118,Classroom
47,-0.165863467,0.003716436,-0.015857398,0.9860142046965442,0.002069676,0.032509815888208095,0.3332780741372155,9.891777807069056,-0.325720078,-0.031225755,9.891777807069056,-0.325720078,-0.031225755,0,1.5,1,16.30500030517578,0.026126768440008163,0,149.39999389648438,-86.910989,40.4279979,-0.012630333,-0.003510564,-0.010659715,-0.021634668,0.012784796,8.58447952444656E-4,-111.59169,31.84224334716797,-59.05849083,-1.02E-04,-0.001875538,2.4760066637841675E-4,-70.61164688,34.062277221679686,-10.81847174,-138.5,Classroom
48,-0.165932056,0.003737827,-0.016011483,0.9860001027005391,0.002058472,0.032820995,0.3334179031617433,9.891769131410468,-0.32638217,-0.030017728,9.891769131410468,-0.32638217,-0.030017728,0,1.5,1,16.30500030517578,0.026126768440008163,0,149.39999389648438,-86.910989,40.4279979,-0.001264155,-0.001448816,-0.009585175,-0.02144489,0.012808518339563342,8.703090727455842E-4,-111.6284122,31.892263259887695,-59.03091869,8.747569687700677E-5,-0.001851816,2.594617991120491E-4,-70.64861282,34.11180934906006,-10.78980178,-132.2222222,Classroom
49,-0.165944976,0.003771675,-0.015985214,0.985998228,0.002133544,0.032780439,0.33344282397946107,9.897762909676265,-0.325127681,-0.03150453,9.897762909676265,-0.325127681,-0.03150453,0,1.5,1,16.30500030517578,0.026126768440008163,0,149.39999389648438,-86.910989,40.4279979,0.002869467,-5.34E-04,-0.010326092,-0.021551639,0.012844101625304777,6.805312790392527E-4,-111.5615556,31.794663372039796,-58.87109875,-1.93E-05,-0.001816233,6.968400427547184E-5,-70.58163437,34.01457538604736,-10.6315678,-125.25,Classroom
50,-0.165663605,0.003660823,-0.016030254,0.9860452320969221,0.001909248,0.032831943,0.3328758394255221,9.899900121596254,-0.326033702,-0.028391537,9.899900121596254,-0.326033702,-0.028391537,0,1.5,1,16.30500030517578,0.026126768440008163,0,149.39999389648438,-86.910989,40.4279979,0.001055967,-8.01E-04,-0.009423342,-0.021527917,0.012678046059767597,6.68670163259308E-4,-111.5459398,31.804301452636718,-58.90843098,4.447913543294066E-6,-0.001982288,5.782289245138759E-5,-70.56614059,34.02433544158936,-10.66853372,-124.4444444,Classroom
51,-0.165491154,0.003621515,-0.015962403,0.9860754296617601,0.001859885,0.032684743440556295,0.3325265944004059,9.923906913170448,-0.321098394,-0.029841259,9.923906913170448,-0.321098394,-0.029841259,0,1.5,1,16.30500030517578,0.026126768440008163,0,149.39999389648438,-86.910989,40.4279979,0.013764492516378754,0.002984079,-0.011355559,-0.021480473,0.012796657,7.39836830813076E-4,-111.4823779,31.803569355010985,-58.93417286,5.189236196987693E-5,-0.001863677,1.2898955774466388E-4,-70.50209129,34.02335922241211,-10.69403173,-123.5,Classroom
52,-0.165391122,0.003617186,-0.01575823,0.9860955146909918,0.001922241,0.032280349,0.33232198699006754,9.954909019099857,-0.320760199,-0.029831878,9.954909019099857,-0.320760199,-0.029831878,0,1.5,1,16.30500030517578,0.026126768440008163,0,149.39999389648438,-86.910989,40.4279979,0.014742546,4.96336267989816E-4,-0.010493943,-0.021504195,0.012915268296249283,7.279757263355897E-4,-111.45078,31.838339385986327,-59.06715279,2.8170137756585496E-5,-0.001745066,1.171284555276693E-4,-70.47085899,34.05837341308594,-10.82688977,-124.7777778,Classroom
53,-0.165410275,0.003661103,-0.015577195,0.9860950066047964,0.002068191,0.031937795465142985,0.33235793987524165,9.955846888347736,-0.317621071,-0.030644973,9.955846888347736,-0.317621071,-0.030644973,0,1.5,1,16.30500030517578,0.026126768440008163,0,149.39999389648438,-86.910989,40.4279979,0.002018216,7.991405945379758E-4,-0.010363447,-0.021599084,0.012855962768775745,6.44947928873804E-4,-111.5005563,31.85663938522339,-59.06263874,-6.67E-05,-0.001804372,3.410065297977727E-5,-70.52063469,34.07679542541504,-10.82213176,-130.125,Classroom
54,-0.16534028,0.003642358,-0.015554635,0.9861071219722044,0.002040928,0.031887019233940876,0.33221634499077657,9.947085704618287,-0.317107079,-0.030729186,9.947085704618287,-0.317107079,-0.030729186,0,1.5,1,16.30500030517578,0.026126768440008163,0,149.39999389648438,-86.910989,40.4279979,-0.002885522,-3.45E-04,-0.011221015,-0.021385585,0.012820379333841858,9.889201870305663E-4,-111.4645659,31.862373275756838,-58.99602692,1.467812605184114E-4,-0.001839955,3.780728947479748E-4,-70.48464455,34.08228542327881,-10.75649578,-117.4444444,Classroom
55,-0.165269914,0.003614304,-0.01560289,0.9861182948717704,0.001971888,0.031972739,0.3320748447798766,9.946804047,-0.320768912,-0.030040959,9.946804047,-0.320768912,-0.030040959,0,1.5,1,16.30500030517578,0.026126768440008163,0,149.39999389648438,-86.910989,40.4279979,-5.57E-04,-0.002208627,-0.009284951,-0.021649836,0.013050986816569302,7.400649343393385E-4,-111.4715198,31.830775356292726,-58.99187881,-1.17E-04,-0.001609348,1.2921765077268131E-4,-70.49135498,34.05044338226318,-10.75246976,-118.3333333,Classroom
56,-0.16527637,0.003636073,-0.015646672,0.9861164503884547,0.002000158,0.032066308,0.332087643,9.922565136,-0.320806661,-0.029042014,9.922565136,-0.320806661,-0.029042014,0,1.5,1,16.30500030517578,0.026126768440008163,0,149.39999389648438,-86.910989,40.4279979,-0.015196569,-0.00191138,-0.009096508,-0.021527918,0.012844101625304777,7.872812826303964E-4,-111.4743262,31.852613430023194,-58.91099293,4.447902240835637E-6,-0.001816233,1.7643400843173843E-4,-70.49440529,34.07252525,-10.67097374,-113.375,Classroom
57,-0.165405318,0.003668107,-0.015940777,0.9860900027080647,0.001961835,0.032657345,0.3323508136480757,9.892117537341072,-0.326451862,-0.028856163,9.892117537341072,-0.326451862,-0.028856163,0,1.5,1,16.30500030517578,0.026126768440008163,0,149.39999389648438,-86.910989,40.4279979,-0.014346613,-0.002701551,-0.009352016,-0.021456751,0.012820379401656609,5.856423776651037E-4,-111.4239397,31.820527267456054,-58.99627068,7.56145765760787E-5,-0.001839955,-2.52E-05,-70.44377487,34.04056140899658,-10.75637375,-114.3333333,Classroom
58,-0.165273973,0.003616351,-0.016002716,0.9861112155960602,0.001843571,0.032762165208464686,0.3320865179728536,9.890979248343163,-0.32619632,-0.030505585,9.890979248343163,-0.32619632,-0.030505585,0,1.5,1,16.30500030517578,0.026126768440008163,0,149.39999389648438,-86.910989,40.4279979,-0.001750076,-0.001855581,-0.012199857,-0.021409306,0.012654323872287297,8.821701681811037E-4,-111.5286159,31.824919300079344,-58.96357487,1.230590238724157E-4,-0.002006011,2.7132289567781447E-4,-70.54869499,34.04519748687744,-10.72379976,-121.375,Classroom
59,-0.165368811,0.003662373,-0.016038181,0.9860945725903928,0.001919499,0.032847523,0.33227778233370736,9.893790282092048,-0.324616593,-0.029553102,9.893790282092048,-0.324616593,-0.029553102,0,1.5,1,16.30500030517578,0.026126768440008163,0,149.39999389648438,-86.910989,40.4279979,9.30156522584193E-4,5.746773145731213E-4,-0.010495468,-0.021504195,0.012737351641492936,7.991423854125139E-4,-111.4347977,31.86957124710083,-59.05666084,2.817013210535628E-5,-0.001922983,1.8829511177897887E-4,-70.45499924,34.08948333740234,-10.81664177,-108.2222222,Classroom
60,-0.165338142,0.003648759,-0.016033759,0.9860998345810232,0.001895117,0.032834243391034676,0.33221595350978445,9.899432274011465,-0.326666307,-0.028644848,9.899432274011465,-0.326666307,-0.028644848,45,1.5,1,240.87100219726562,0,0,149.39999389648438,-86.9109906,40.4279933,0.00222633,-0.001188016,-0.009682892,-0.021433029,0.012654324,6.212257120071106E-4,-111.4666402,31.86810722351074,-59.10326488,9.933679965912428E-5,-0.002006011,1.0378437243329669E-5,-70.48647491,34.08789733886719,-10.86324575,-118.875,Classroom
61,-0.165308272,0.003627803,-0.016008717,0.9861053268886307,0.001863044,0.032777850199671624,0.33215578580365596,9.916678845,-0.323013634,-0.03113283,9.916678845,-0.323013634,-0.03113283,45,1.5,1,240.87100219726562,0,0,149.39999389648438,-86.9109906,40.4279933,0.011188784849296496,0.001595528,-0.012611365,-0.021516056,0.012666184988632364,7.635590572868591E-4,-111.4302837,31.83284944534302,-59.09716488,1.630901745565742E-5,-0.001994149,1.527117808277095E-4,-70.44999718,34.05288314819336,-10.85787779,-110.1111111,Classroom
62,-0.165482928,0.003607194,-0.015832922,0.9860788080298785,0.001874802,0.032424747473695906,0.3325092540782632,9.944016243647603,-0.320048741,-0.028188264,9.944016243647603,-0.320048741,-0.028188264,45,1.5,1,240.87100219726562,0,0,149.39999389648438,-86.9109906,40.4279933,0.012007176297382243,0.00210508,-0.008749394,-0.021587223,0.012879684897483264,8.46586846836924E-4,-111.4014923,31.912759208679198,-59.02884506,-5.49E-05,-0.001780649,2.3573955511945545E-4,-70.42157112,34.13267132,-10.78919179,-104.875,Classroom
63,-0.16601,0.003153728,-0.015429903,0.9859978631862159,0.00109687,0.031480362,0.3335888371305558,9.955753891213426,-0.314391921,-0.023431658,9.955753891213426,-0.314391921,-0.023431658,45,1.5,1,240.87100219726562,0,0,149.39999389648438,-86.9109906,40.4279933,0.007163761,-8.26E-04,-0.013483497,-0.021361862,0.011456351492721225,0.001902226,-111.3875834,31.86749736785889,-59.11619698,1.7050348868756328E-4,-0.003203983,0.001291378,-70.40778465,34.08740905761719,-10.87556782,-101.7777778,Classroom
64,-0.166006352,0.002851236,-0.015152156,0.986004138,5.92231576704832E-4,0.030831718154681418,0.33358776999207645,9.953552847927057,-0.307611291,-0.015846642,9.953552847927057,-0.307611291,-0.015846642,45,1.5,1,240.87100219726562,0,0,149.39999389648438,-86.9109906,40.4279933,-3.38E-04,-7.95E-04,-0.00992813,-0.021379653,0.012792551433309339,8.105473070127817E-4,-111.4421176,31.85468729019165,-59.04580292,1.527118102575724E-4,-0.001867783,1.9970002568488082E-4,-70.46183105,34.074721565246584,-10.80614982,-109.1111111,Classroom
65,-0.166315009,0.003420163,-0.015605756,0.9859430095524464,0.001553915,0.031916134,0.334201122,9.939187096160593,-0.317655918,-0.026698557,9.939187096160593,-0.317655918,-0.026698557,45,1.5,1,240.87100219726562,0,0,149.39999389648438,-86.9109906,40.4279933,-0.006174717,-9.73E-05,-0.01121881,-0.021290696,0.013959046,-3.40E-04,-111.4928702,31.85151533126831,-58.92172894,2.4167018393235444E-4,-7.01E-04,-9.50E-04,-70.51294952,34.07191535949707,-10.68109978,-85.375,Classroom
66,-0.166209614,0.003468622,-0.015609964,0.985960728,0.001651629,0.031940154,0.3339858752431221,9.940075661372212,-0.31946796,-0.028362498,9.940075661372212,-0.31946796,-0.028362498,45,1.5,1,240.87100219726562,0,0,149.39999389648438,-86.9109906,40.4279933,8.403629932588744E-4,-0.001819327,-0.011883697,-0.021468612,0.012227323792368463,0.001048226,-111.5112914,31.893239269256593,-59.05714859,6.375346588224028E-5,-0.002433011,4.373784516079044E-4,-70.53137085,34.11327335357666,-10.81761776,-69.44444444,Classroom
67,-0.165574725,0.003170328,-0.015344382,0.9860726346090002,0.001171489,0.031316461,0.33270437711650885,9.944045326084767,-0.31248986,-0.021683503,9.944045326084767,-0.31248986,-0.021683503,45,1.5,1,240.87100219726562,0,0,149.39999389648438,-86.9109906,40.4279933,7.854572777609224E-4,-9.26E-04,-0.009980216,-0.02176514,0.012405240442603827,0.001866642,-111.507632,31.816257266998292,-59.03433472,-2.33E-04,-0.002255094,0.001255795,-70.52783287,34.03641353607178,-10.79431576,-65.625,Classroom
68,-0.165308181,0.002974178,-0.014978927,0.9861236174129745,9.139637746398187E-4,0.030530339,0.3321661694535931,9.948630601457022,-0.305163291,-0.019151293,9.948630601457022,-0.305163291,-0.019151293,45,1.5,1,240.87100219726562,0,0,149.39999389648438,-86.9109906,40.4279933,0.001444955,-0.001309019,-0.01000375,-0.021326279,0.013022018271584281,0.00141592,-111.4705439,31.819795360565184,-59.03152882,2.0608681907370975E-4,-0.001638316,8.050729865343898E-4,-70.49013474,34.039707260131834,-10.79150985,-78.44444444,Classroom
69,-0.165385755,0.003055763,-0.014769964,0.9861136101981969,0.001141688,0.030145055388362662,0.3323192240543736,9.941269397735596,-0.300966472,-0.022202633,9.941269397735596,-0.300966472,-0.022202633,45,1.5,1,240.87100219726562,0,0,149.39999389648438,-86.9109906,40.4279933,-0.003200633,-0.001065545,-0.010600564,-0.021350001,0.012606879361697193,0.001024504,-111.4379702,31.833093376159667,-59.10838882,1.823645914696808E-4,-0.002053455,4.1365623869707137E-4,-70.45792709,34.05263957977295,-10.86849178,-124.25,Classroom
70,-0.165258071,0.003009777,-0.01473272,0.9861357142624346,0.001067179,0.030056233,0.3320612160904894,9.940769834425843,-0.300874216,-0.021166607,9.940769834425843,-0.300874216,-0.021166607,45,1.5,1,240.87100219726562,0,0,149.39999389648438,-86.9109906,40.4279933,-6.84E-04,-0.001644967,-0.010647508,-0.021504195,0.012701768265331833,7.872813120167883E-4,-111.4578558,31.812841243743897,-59.0662991,2.8170133800725046E-5,-0.001958566,1.7643400278050922E-4,-70.47781311,34.033119430541994,-10.82652372,-123.7777778,Classroom
71,-0.165248198,0.003018016,-0.014805583,0.9861362507042376,0.001059635,0.030202685,0.33204158648703863,9.927841547623421,-0.30180347,-0.02121307,9.927841547623421,-0.30180347,-0.02121307,0,1.5,1,17.399999618530273,6.027067429386079E-4,0,149.39999389648438,-86.9109889,40.4279931,-0.008937836,-0.00152249,-0.010820065,-0.021421167,0.012820379410698576,8.110034972365982E-4,-111.4860378,31.843585395812987,-59.0554406,1.1119791996005235E-4,-0.001839955,2.0015621738671098E-4,-70.50599457,34.06374122619629,-10.81493379,-123.125,Classroom
72,-0.16542474,0.003096619,-0.014999928,0.9861034722004122,0.001144991,0.030612259831966707,0.33239916661410657,9.895068048273476,-0.306472958,-0.022281709,9.895068048273476,-0.306472958,-0.022281709,0,1.5,1,17.399999618530273,6.027067429386079E-4,0,149.39999389648438,-86.9109889,40.4279931,-0.015331787,-0.002801998,-0.010653059,-0.021385584,0.012808518303395475,8.940312896122776E-4,-111.4659077,31.829433460235595,-59.05275688,1.4678125825791973E-4,-0.001851816,2.831840221950947E-4,-70.48574265,34.04958915710449,-10.81334774,-122.7777778,Classroom
73,-0.165676742,0.003057891,-0.015462709,0.9860540158473529,9.072349152679985E-4,0.031512633,0.3329159144598704,9.891487417869197,-0.314304805,-0.020992372,9.891487417869197,-0.314304805,-0.020992372,0,1.5,1,17.399999618530273,6.027067429386079E-4,0,149.39999389648438,-86.9109889,40.4279931,-0.001990162,-0.002312553,-0.011980545,-0.021309171,0.012628092533514764,6.460885057234778E-4,-111.4962855,31.80857135772705,-58.9996867,2.231941913263514E-4,-0.002032242,3.524120536614926E-5,-70.5163649,34.02872734069824,-10.75954578,-98.22222222,Classroom
74,-0.166161173,0.003015457,-0.015301953,0.9859752064769708,8.615363723806386E-4,0.031181905,0.3338984462242682,9.895430925980355,-0.309138746,-0.016915282,9.895430925980355,-0.309138746,-0.016915282,0,1.5,1,17.399999618530273,6.027067429386079E-4,0,149.39999389648438,-86.9109889,40.4279931,0.001341311,-4.49E-04,-0.008316152,-0.021504195,0.012701768,8.465868722674554E-4,-111.5077538,31.818819370269775,-59.08203663,2.8170126454127066E-5,-0.001958566,2.357395619009305E-4,-70.5278331,34.03897521972656,-10.84201772,-99,Classroom
75,-0.16635554,0.003028831,-0.015348008,0.9859416762601982,8.664797724211064E-4,0.031277388442777894,0.3342928683873519,9.900884507929238,-0.309603373,-0.021099817,9.900884507929238,-0.309603373,-0.021099817,0,1.5,1,17.399999618530273,6.027067429386079E-4,0,149.39999389648438,-86.9109889,40.4279931,0.001683818,1.907661123183167E-4,-0.012470121,-0.021527918,0.012381518273772582,3.009757142315067E-4,-111.4789623,31.80686342,-59.13022686,4.447906196696087E-6,-0.002278816,-3.10E-04,-70.49879669,34.02677509307861,-10.89020782,-80,Classroom
76,-0.166634321,0.002968645,-0.015421183,0.9858934983466435,7.145198266546253E-4,0.031402019078581075,0.33486111,9.9160313,-0.313056123,-0.018791208,9.9160313,-0.313056123,-0.018791208,0,1.5,1,16.125999450683594,0.030568212270736694,0,149.39999389648438,-86.9109893,40.4279917,0.008265356,-0.00179285,-0.011690449,-0.02144489,0.012488268,8.703090987412386E-4,-111.5212957,31.795639305114747,-59.07715683,8.747570252823598E-5,-0.002172066,2.5946181832622845E-4,-70.54113098,34.01567341,-10.83701574,-62.125,Classroom
77,-0.167309033,0.002936346,-0.015288208,0.985781535,6.73817237115039E-4,0.031129322891819824,0.336229858,9.910220562833027,-0.310131884,-0.019017713,9.910220562833027,-0.310131884,-0.019017713,0,1.5,1,16.125999450683594,0.030568212270736694,0,149.39999389648438,-86.9109893,40.4279917,-0.002284393,-0.0013734,-0.012276517,-0.021219529,0.012595018308645891,0.001036365,-111.4944562,31.81479337692261,-59.11485477,3.1283683340218893E-4,-0.002065316,4.255173544770161E-4,-70.51465729,34.03458316802978,-10.87471376,-84.33333333,Classroom
78,-0.167593194,0.002944827,-0.015400368,0.9857314171142948,6.439689148341201E-4,0.031353579,0.33680743007983976,9.905877324251028,-0.308579213,-0.019499204,9.905877324251028,-0.308579213,-0.019499204,0,1.5,1,16.125999450683594,0.030568212270736694,0,149.39999389648438,-86.9109893,40.4279917,-0.002956039,0.002371035,-0.014062094,-0.02123139,0.012879684948344326,0.001321031,-111.4667617,31.84687931060791,-58.98004478,3.0097571479662964E-4,-0.001780649,7.10184068206553E-4,-70.48696289,34.06691341400146,-10.74014776,-65.25,Classroom
79,-0.168122087,0.002990446,-0.015325376,0.985642478,7.422891743842837E-4,0.031221309369339527,0.3378786661671203,9.910261218987623,-0.312995142,-0.015306515,9.910261218987623,-0.312995142,-0.015306515,0,1.5,1,16.125999450683594,0.030568212270736694,0,149.39999389648438,-86.9109893,40.4279917,0.001727197,-0.003316177,-0.007138049,-0.021836307,0.012547573811618739,1.3492014812920423E-4,-111.479084,31.834313411712646,-59.0292112,-3.04E-04,-0.002112761,-4.76E-04,-70.49916275,34.05410331726074,-10.78833774,-103,Classroom
80,-0.167981946,0.002967572,-0.01534498,0.985666162,6.95050209738061E-4,0.031252141,0.3375951043031748,9.910121852911791,-0.31012027,-0.019122254,9.910121852911791,-0.31012027,-0.019122254,0,1.5,1,16.125999450683594,0.030568212270736694,0,149.39999389648438,-86.9109893,40.4279917,9.698404849154278E-4,-5.09E-04,-0.011998383,-0.021646528,0.012784796061663373,8.940312856564171E-4,-111.4878677,31.820771350860596,-59.03945881,-1.14E-04,-0.001875538,2.831840114577592E-4,-70.50794693,34.040805435180665,-10.80017179,-131.125,Classroom
81,-0.16838344,0.00328579,-0.015617877,0.9855921227955123,0.001217636,0.031897951622755785,0.33840296222168265,9.923476913600291,-0.318085696,-0.021700927,9.923476913600291,-0.318085696,-0.021700927,0,1.5,1,16.28499984741211,0.043398231,0,149.39999389648438,-86.9109906,40.4279937,0.007486103,-0.001299868,-0.009993898,-0.02133814,0.013792990516979717,-7.19E-04,-111.543378,31.85310131072998,-59.05446465,1.9422568520983157E-4,-8.67E-04,-0.001329927,-70.56345695,34.07313533782959,-10.81493377,-95,Classroom
82,-0.168808419,0.003626661,-0.015910543,0.9855137530427712,0.001777506,0.032590339,0.33925788362438863,9.916919874913484,-0.324218756,-0.030064191,9.916919874913484,-0.324218756,-0.030064191,0,1.5,1,16.28499984741211,0.043398231,0,149.39999389648438,-86.9109906,40.4279937,-0.003451953,-7.63E-04,-0.011725594,-0.02147363,0.012757310231861014,8.810296925590732E-4,-111.5963259,31.851515350341796,-58.96064693,5.873530104648895E-5,-0.001903024,2.701823922017446E-4,-70.61603889,34.07191509246826,-10.72038379,-103.2222222,Classroom
83,-0.168726222,0.003648931,-0.015956667,0.9855270183202133,0.00180859,0.032688636,0.33909076191846604,9.910760694337123,-0.32517995,-0.027555211,9.910760694337123,-0.32517995,-0.027555211,0,1.5,1,16.28499984741211,0.043398231,0,149.39999389648438,-86.9109906,40.4279937,-0.002616549,-9.10E-04,-0.009556735,-0.02165839,0.013045740544398143,7.516979398115457E-4,-111.5408157,31.86883924484253,-58.99505093,-1.26E-04,-0.001614594,1.4085065883141264E-4,-70.56077301,34.08826332092285,-10.75478775,-121.125,Classroom
84,-0.168587088,0.003653926,-0.015969283,0.9855506055563399,0.001818798,0.032714934712185444,0.338808284,9.911248558933295,-0.32494183,-0.028809701,9.911248558933295,-0.32494183,-0.028809701,0,1.5,1,16.28499984741211,0.043398231,0,149.39999389648438,-86.9109906,40.4279937,-3.21E-04,-4.52E-04,-0.010713868,-0.02144489,0.012678046086893498,8.58447945663181E-4,-111.5326419,31.839437351226806,-58.96589283,8.747568218381081E-5,-0.001982288,2.476006748552606E-4,-70.55259911,34.05947135925293,-10.72538577,-124.7777778,Classroom
85,-0.16845061,0.00364018,-0.016018475,0.9855731980314533,0.001779638,0.032807029,0.3385321437155159,9.913348049793429,-0.326870027,-0.027857218,9.913348049793429,-0.326870027,-0.027857218,0,1.5,1,16.28499984741211,0.043398231,0,149.39999389648438,-86.9109906,40.4279937,9.703775054042779E-4,-0.001440836,-0.010147646,-0.021504195,0.012796657,7.279757189889918E-4,-111.4458995,31.891653366088867,-59.03933678,2.8170134365847966E-5,-0.001863677,1.1712844592057964E-4,-70.46610092,34.111809158325194,-10.7996838,-127.5,Classroom
86,-0.168257233,0.003631631,-0.015876508,0.9856085522660931,0.001817016,0.032523891590173964,0.3381385971041559,9.929299354553223,-0.321219017,-0.028182456,9.929299354553223,-0.321219017,-0.028182456,0,1.5,1,16.28499984741211,0.043398231,0,149.39999389648438,-86.9109906,40.4279937,0.010716623472935945,0.001598128,-0.010091045,-0.021575362,0.012820379,9.533368436465926E-4,-111.5121456,31.837119312286376,-58.99383106,-4.30E-05,-0.001839955,3.424895705781805E-4,-70.53222511,34.05727516174316,-10.75405574,-120.5555556,Classroom
87,-0.16805228,0.003632195,-0.015677059,0.9856467194927548,0.001891965,0.032130415216811654,0.3377207957425164,9.964024176964394,-0.318820612,-0.029289069,9.964024176964394,-0.318820612,-0.029289069,0,1.5,1,16.28499984741211,0.043398231,0,149.39999389648438,-86.9109906,40.4279937,0.015242391,0.001116241,-0.010314089,-0.021492334,0.012938990537981384,5.737812748829862E-4,-111.4606618,31.874207382202147,-58.93063492,4.003124675505514E-5,-0.001721344,-3.71E-05,-70.48049721,34.09436328887939,-10.69061578,-126.25,Classroom
88,-0.167763081,0.003566266,-0.015567613,0.9856979655988009,0.001808097,0.031891912,0.3371348861351754,9.961419531442587,-0.316532106,-0.028043068,9.961419531442587,-0.316532106,-0.028043068,0,1.5,1,16.28499984741211,0.043398231,0,149.39999389648438,-86.9109906,40.4279937,7.542823124857782E-4,0.001173431,-0.010010854,-0.021468612,0.012867823830869013,8.110035124949171E-4,-111.4468759,31.880673313140868,-59.07081287,6.37534743590841E-5,-0.001792511,2.0015624733822583E-4,-70.46695473,34.10082939147949,-10.83115977,-133.8888889,Classroom
89,-0.167640267,0.003569899,-0.015476285,0.9857202831981251,0.001849877,0.03171281,0.3368847150247074,9.960289973657108,-0.317554281,-0.027926912,9.960289973657108,-0.317554281,-0.027926912,0,1.5,1,16.28499984741211,0.043398231,0,149.39999389648438,-86.9109906,40.4279937,-4.92E-04,-0.001282245,-0.009664195,-0.021516056,0.013022018334312924,7.635590646334571E-4,-111.4566358,31.85188133239746,-59.03555485,1.6309027627870006E-5,-0.001638316,1.5271179665115128E-4,-70.47659271,34.07142734527588,-10.79529178,-131.875,Classroom
90,-0.167865654,0.00372067,-0.015532869,0.9856804296808336,0.002120973,0.03187551,0.3373380485668923,9.946095605498378,-0.318367377,-0.028879395,9.946095605498378,-0.318367377,-0.028879395,0,1.5,1,16.28499984741211,0.043398231,0,149.39999389648438,-86.9109906,40.4279937,-0.007576794,-9.10E-04,-0.007491333,-0.021480473,0.013116907256031499,7.042535100340192E-4,-111.488112,31.86469133377075,-59.04141094,5.189236366524569E-5,-5.65E-04,1.1861106172855039E-5,-70.50819107,34.084603271484376,-10.80151371,-139.4444444,Classroom
91,-0.168459403,0.004062296,-0.015574557,0.9855771700923259,0.002761474,0.032074019,0.33853304844636184,9.939698191522394,-0.31934309,-0.029065245,9.939698191522394,-0.31934309,-0.029065245,0,1.5,1,16.173999786376953,0.022543967,0,149.39999389648438,-86.9109929,40.4279946,-0.005172785,-1.24E-04,-0.00155093,-0.021567606,0.012839539639221935,6.460884441576826E-4,-111.5920561,31.897997283935545,-59.00969097,-3.52E-05,1.1747059313795315E-5,-1.17E-04,-70.61201317,34.11839721679687,-10.76906179,-128.5555556,Classroom
92,-0.168558052,0.004134387,-0.015732244,0.9855574948116413,0.002847252,0.032409510927871595,0.33873232475762227,9.906102893,-0.323710572,-0.029367252,9.906102893,-0.323710572,-0.029367252,0,1.5,1,16.173999786376953,0.022543967,0,149.39999389648438,-86.9109929,40.4279946,-0.0162926,-0.001899061,-0.001047672,-0.021350001,0.012784796,7.872812899769944E-4,-111.5835154,31.870913257598875,-59.03604279,1.8236459316504957E-4,-4.30E-05,2.3722223648168508E-5,-70.60310684,34.091313171386716,-10.79614577,-129.875,Classroom
93,-0.168762168,0.004253002,-0.015885039,0.9855196140344861,0.003022872,0.032751383,0.3391441853301039,9.896252956,-0.32401258,-0.030157115,9.896252956,-0.32401258,-0.030157115,0,1.5,1,16.173999786376953,0.022543967,0,149.39999389648438,-86.9109929,40.4279946,-0.005978288,5.346759430413107E-4,-1.56E-04,-0.021610945,0.012915268278165349,5.975035053126297E-4,-111.6256052,31.883723239898682,-59.03884888,-7.86E-05,8.747569687700677E-5,-1.66E-04,-70.64568497,34.10400131225586,-10.79846375,-131.8888889,Classroom
94,-0.168642575,0.004232334,-0.01593271,0.9855394039339233,0.002970004,0.032838034,0.33890245290635856,9.901015327972116,-0.325359994,-0.028484463,9.901015327972116,-0.325359994,-0.028484463,0,1.5,1,16.173999786376953,0.022543967,0,149.39999389648438,-86.9109929,40.4279946,0.001446909,-4.18E-05,9.863132122650887E-4,-0.021634667,0.012986434949109855,6.686701756920123E-4,-111.6246299,31.86151927947998,-59.05690491,-1.02E-04,1.5864236499589767E-4,-9.49E-05,-70.64483101,34.08130931854248,-10.81725178,-130.75,Classroom
95,-0.168606553,0.004249172,-0.015917636,0.985545737,0.003009496,0.032813884,0.33882868492487567,9.904778777,-0.325011526,-0.029018782,9.904778777,-0.325011526,-0.029018782,0,1.5,1,16.173999786376953,0.022543967,0,149.39999389648438,-86.9109929,40.4279946,0.001795667,1.7974851200881515E-4,8.529366617931903E-4,-0.021575362,0.012998296065454922,7.635590685893175E-4,-111.5456958,31.84529329299927,-59.02701488,-4.30E-05,1.7050348021071946E-4,0,-70.56577492,34.06532722473145,-10.78675176,-130.7777778,Classroom
96,-0.16842158,0.004214546,-0.015866261,0.9855783396554225,0.002964672,0.032700356,0.338453891,9.919060927170973,-0.322271798,-0.028966959,9.919060927170973,-0.322271798,-0.028966959,0,1.5,1,16.173999786376953,0.022543967,0,149.39999389648438,-86.9109929,40.4279946,0.009789365,0.002067784,5.435345206156517E-4,-0.021599084,0.012986434967193788,7.161146224232264E-4,-111.6398793,31.837607307434084,-58.98480289,-6.67E-05,1.586423683866352E-4,-4.74E-05,-70.65971458,34.05739730834961,-10.74478378,-135.375,Classroom
97,-0.168209636,0.004176503,-0.015679494,0.9856176810357177,0.002959525,0.032318661,0.33802339752900945,9.957054943714327,-0.318483534,-0.028089531,9.957054943714327,-0.318483534,-0.028089531,0,1.5,1,16.173999786376953,0.022543967,0,149.39999389648438,-86.9109929,40.4279946,0.017780479875583094,0.002775291,0.00139382,-0.021693973,0.013057601647180261,5.856423929234226E-4,-111.5702178,31.894337310791016,-59.04799881,-1.62E-04,2.2980903141941984E-4,-1.78E-04,-70.59041901,34.11449325561524,-10.80797977,-131.7777778,Classroom
98,-0.167989311,0.004141502,-0.015569088,0.9856571584071928,0.002934832,0.032088532682182716,0.33757642345521055,9.962293652654852,-0.317577513,-0.028740007,9.962293652654852,-0.317577513,-0.028740007,0,1.5,1,16.173999786376953,0.022543967,0,149.39999389648438,-86.9109929,40.4279946,0.00424049,0.002205414,5.52954188394315E-4,-0.021670251,0.013033879450657994,4.907535000261172E-4,-111.5843693,31.85676134109497,-58.93026863,-1.38E-04,2.0608681342248054E-4,-2.73E-04,-70.60432686,34.07716117858887,-10.69024976,-141.625,Classroom
99,-0.167935816,0.004166446,-0.015479418,0.9856675793823687,0.003015902,0.031919937,0.33746639299161224,9.956285485943544,-0.316671493,-0.029390483,9.956285485943544,-0.316671493,-0.029390483,0,1.5,1,16.173999786376953,0.022543967,0,149.39999389648438,-86.9109929,40.4279946,-0.002223459,0.00152585,7.350380053219286E-4,-0.021516056,0.013022018334312924,5.975035053126297E-4,-111.561678,31.884455394744872,-59.05873505,1.630902875811585E-5,1.9422570498913382E-4,-1.66E-04,-70.58163506,34.10461132049561,-10.81834976,-142.3333333,Classroom
100,-0.16792799,0.004189923,-0.015534259,0.9856679531244131,0.003044031,0.032035936028338395,0.33745021287065285,9.946722855,-0.320644042,-0.030296503,9.946722855,-0.320644042,-0.030296503,0,1.5,1,16.173999786376953,0.022543967,0,149.39999389648438,-86.9109929,40.4279946,-0.004700065,-0.001631113,-1.04E-05,-0.021602848,0.013086228013540117,7.283178744658541E-4,-111.5271523,31.849441242218017,-59.02359879,-7.05E-05,2.584353720661826E-4,-3.52E-05,-70.54735275,34.06984146118164,-10.78321373,-132,Classroom
101,-0.167913579,0.004207882,-0.015615859,0.9856690260970477,0.003052517,0.032202849,0.33742104716671323,9.934813767960929,-0.321120283,-0.028414769,9.934813767960929,-0.321120283,-0.028414769,0,1.5,1,17.395999908447266,0.008863296,0,149.39999389648438,-86.9109918,40.4279946,-0.007590488,-7.29E-04,0.002003629,-0.021610945,0.012938991,8.465868315786051E-4,-111.6186515,31.847367362976073,-59.00981281,-7.86E-05,1.1119789905050426E-4,8.302778276858978E-5,-70.63873077,34.06740123748779,-10.77028176,-133.4444444,Classroom
102,-0.167944752,0.004236733,-0.015774408,0.9856610431254489,0.003055119,0.03252529,0.3374846681807805,9.899522577674643,-0.325606825,-0.0280663,9.899522577674643,-0.325606825,-0.0280663,0,1.5,1,17.395999908447266,0.008863296,0,149.39999389648438,-86.9109918,40.4279946,-0.01769689,-0.002847916,0.002301422,-0.021504195,0.013093184996215463,6.212257103117418E-4,-111.5833939,31.86444736480713,-58.96760078,2.817012419363538E-5,2.653923911919582E-4,-1.42E-04,-70.6034726,34.084725341796876,-10.72684978,-133.7777778,Classroom
103,-0.167880509,0.00421706,-0.015961355,0.985669043,0.002955644,0.032887170471034004,0.33735637468041724,9.893014889318966,-0.322363158,-0.02929175,9.893014889318966,-0.322363158,-0.02929175,0,1.5,1,17.395999908447266,0.008863296,0,149.39999389648438,-86.9109918,40.4279946,-0.004112234,0.003338572,2.3624362442099932E-5,-0.02165839,0.013069462746006517,5.026145994174973E-4,-111.5297137,31.88457731246948,-58.96406284,-1.26E-04,2.4167017602063354E-4,-2.61E-04,-70.54991455,34.10436752319336,-10.72404377,-113.875,Classroom
104,-0.167793012,0.004211218,-0.016021643,0.9856830181427372,0.002926801,0.033003778422920446,0.33717945565297763,9.895030197587985,-0.326341516,-0.026742116,9.895030197587985,-0.326341516,-0.026742116,0,1.5,1,17.395999908447266,0.008863296,0,149.39999389648438,-86.9109918,40.4279946,5.72112000104293E-4,4.315081151943762E-4,0.002286831,-0.021610946,0.012915268287207316,4.077257104760524E-4,-111.6273138,31.83370334625244,-58.94161472,-7.86E-05,8.747567709770451E-5,-3.56E-04,-70.64727051,34.05361530303955,-10.70183984,-133.7777778,Classroom
105,-0.167747222,0.004226307,-0.015981451,0.9856913975141581,0.002971585,0.032929457,0.3370857186687803,9.901042828193077,-0.324538074,-0.029035983,9.901042828193077,-0.324538074,-0.029035983,0,1.5,1,17.395999908447266,0.008863296,0,149.39999389648438,-86.9109918,40.4279946,0.00263066,0.00151657,7.422965345452133E-4,-0.021800723,0.013223657203675474,5.026145926360221E-4,-111.5881519,31.854809284210205,-59.054953,-2.68E-04,3.958645969565994E-4,-2.61E-04,-70.60810844,34.07520923614502,-10.81554376,-129.875,Classroom
106,-0.167597246,0.004179932,-0.015976046,0.9857172121122045,0.002886942,0.03290278,0.33678274970610167,9.906581980510822,-0.323356295,-0.027299667,9.906581980510822,-0.323356295,-0.027299667,0,1.5,1,17.395999908447266,0.008863296,0,149.39999389648438,-86.9109918,40.4279946,0.003585362,0.002548341,2.457011237885188E-4,-0.02144489,0.013022018316228992,5.975034911845567E-4,-111.6097458,31.87786731719971,-59.02140278,8.747568331405665E-5,1.9422568407958572E-4,-1.66E-04,-70.62970268,34.09777919769287,-10.78101776,-136.5555556,Classroom
107,-0.167422607,0.004127981,-0.015940868,0.985747669,0.002802081,0.032815504746819005,0.33642967783131644,9.909439448014046,-0.324892465,-0.026602729,9.909439448014046,-0.324892465,-0.026602729,0,1.5,1,17.395999908447266,0.008863296,0,149.39999389648438,-86.9109918,40.4279946,-0.001086392,2.743839060218589E-4,0.001978718,-0.021610945,0.013069462718315494,5.619201506261976E-4,-111.6086481,31.881161308288576,-59.02054863,-7.86E-05,2.416701590669459E-4,-2.02E-04,-70.62872643,34.10119525909424,-10.78065179,-128.125,Classroom
108,-0.167466311,0.004184344,-0.015923022,0.9857403,0.002917778,0.032799309101498246,0.3365164523564496,9.906294470851861,-0.326422825,-0.028600619,9.906294470851861,-0.326422825,-0.028600619,0,1.5,1,17.395999908447266,0.008863296,0,149.39999389648438,-86.9109918,40.4279946,1.830036200365974E-4,-3.15E-04,-2.19E-05,-0.021860029,0.013199935,5.500590433230967E-4,-111.5951054,31.844561367034913,-58.98260681,-3.28E-04,3.721423659618329E-4,-2.14E-04,-70.61506325,34.06471706390381,-10.74307576,-133.4444444,Classroom
109,-0.167546775,0.004250085,-0.015958756,0.9857257501437113,0.003032791,0.032892065,0.33667798082415873,9.906207362424981,-0.323118174,-0.028019837,9.906207362424981,-0.323118174,-0.028019837,0,1.5,1,17.395999908447266,0.008863296,0,149.39999389648438,-86.9109918,40.4279946,3.707592303936298E-4,0.002472292,0.002547961,-0.02175556,0.013144963295557179,4.228942640251122E-4,-111.6273139,31.85139329910278,-59.03189472,-2.23E-04,3.1717069550023344E-4,-3.41E-04,-70.64739296,34.071183357238766,-10.7917538,-134.2222222,Classroom
110,-0.167463952,0.004231215,-0.015966855,0.9857397820185689,0.002995616,0.032901444879261034,0.3365105454204152,9.909056117233721,-0.322444466,-0.027462286,9.909056117233721,-0.322444466,-0.027462286,0,1.5,1,17.395999908447266,0.008863296,0,149.39999389648438,-86.9109918,40.4279946,9.579241854473225E-4,0.003771357,0.002288051,-0.021800723,0.013306685045216848,4.4330903068998627E-4,-111.6153581,31.88652931213379,-58.9746767,-2.68E-04,4.788923746390829E-4,-3.20E-04,-70.63531494,34.10644127,-10.73453579,-133.375,Classroom
111,-0.167336708,0.004208526,-0.015946108,0.9857618189552455,0.002962051,0.032852557,0.3362528554444174,9.913464175844656,-0.324157774,-0.028089531,9.913464175844656,-0.324157774,-0.028089531,0,1.5,1,316.5150146484375,0.012546565383672714,0,149.39999389648438,-86.9109907,40.4279939,0.002914623,0.001647347,0.00133524,-0.021788862,0.013128768363334601,5.856423799255954E-4,-111.5869315,31.851271362304686,-58.95808495,-2.56E-04,3.009756899312211E-4,-1.78E-04,-70.60701096,34.071183319091794,-10.71843178,-139.2222222,Classroom
112,-0.16719738,0.004205742,-0.015770049,0.985788296,0.003020095,0.032504007,0.335968806,9.948929731128285,-0.319299531,-0.031039904,9.948929731128285,-0.319299531,-0.031039904,0,1.5,1,316.5150146484375,0.012546565383672714,0,149.39999389648438,-86.9109907,40.4279939,0.018070433903666375,0.003702924,-9.80E-04,-0.021634668,0.013199934961943372,7.279757189889918E-4,-111.576562,31.863715286254884,-58.97516476,-1.02E-04,3.721423789596601E-4,-3.56E-05,-70.59651863,34.083627471923826,-10.73477977,-142.125,Classroom
113,-0.167029084,0.004165547,-0.015675352,0.9858185076019139,0.002978031,0.032303322,0.335627795,9.954868159247834,-0.319708982,-0.02753198,9.954868159247834,-0.319708982,-0.02753198,0,1.5,1,316.5150146484375,0.012546565383672714,0,149.39999389648438,-86.9109907,40.4279939,0.005672825,0.00188328,0.002166399,-0.021741418,0.013057601611012394,3.1283680175530536E-4,-111.5870539,31.864813232421874,-59.02457489,-2.09E-04,2.2980906589191804E-4,-4.51E-04,-70.60725471,34.084481391906735,-10.78479979,-138.7777778,Classroom
114,-0.166973027,0.004174179,-0.015575062,0.9858295622381191,0.003030371,0.032108227,0.3355129838568493,9.963103807889498,-0.320554831,-0.026666168,9.963103807889498,-0.320554831,-0.026666168,0,1.5,1,316.5150146484375,0.012546565383672714,0,149.39999389648438,-86.9109907,40.4279939,0.004047366,-0.001056932,0.00415678,-0.021717696,0.013389712796338554,7.87281271327938E-4,-111.5865662,31.85639528274536,-59.01823074,-1.85E-04,5.619201511913206E-4,2.3722223648168508E-5,-70.60652321,34.07594131469727,-10.77735778,-122.125,Classroom
115,-0.166930688,0.004173142,-0.015559156,0.985837,0.00303503,0.032076366,0.3354269766691819,9.957353906724059,-0.316944461,-0.029251096,9.957353906724059,-0.316944461,-0.029251096,0,1.5,1,316.5150146484375,0.012546565383672714,0,149.39999389648438,-86.9109907,40.4279939,-0.002556264,0.003163289,9.982928055004008E-4,-0.021812584,0.013579490558398001,5.500590291950237E-4,-111.5791238,31.89433729171753,-59.0601989,-2.80E-04,7.516979528093729E-4,-2.14E-04,-70.59908051,34.11437129974365,-10.81993577,-133.8888889,Classroom
116,-0.166932613,0.004199932,-0.01551921,0.9858371702212732,0.003101158,0.032006555462925176,0.33542976709245476,9.952963245725169,-0.316944458,-0.026068409,9.952963245725169,-0.316944458,-0.026068409,0,1.5,1,316.5150146484375,0.012546565383672714,0,149.39999389648438,-86.9109907,40.4279939,-0.002264514,0.001937795,0.004528469,-0.021729557,0.013164351617429152,4.4330903068998627E-4,-111.6171881,31.874329261779785,-59.02457493,-1.97E-04,3.365590344454406E-4,-3.20E-04,-70.63726662,34.09460758209229,-10.78431176,-129.875,Classroom
117,-0.166895331,0.004201939,-0.015556665,0.985842891,0.003093831,0.032080982,0.33535433278500454,9.951281853092526,-0.318300585,-0.028272477,9.951281853092526,-0.318300585,-0.028272477,0,1.5,1,316.5150146484375,0.012546565383672714,0,149.39999389648438,-86.9109907,40.4279939,-4.11E-04,7.548884859362852E-4,0.003280188,-0.021753279,0.013686240555772793,5.144756948530167E-4,-111.6141377,31.859933338165284,-58.94942295,-2.21E-04,8.584479840915397E-4,-2.49E-04,-70.63409531,34.07996734619141,-10.70915977,-136.1111111,Classroom
118,-0.166856851,0.004212497,-0.015587663,0.9858488291501999,0.003105555,0.032145565877167076,0.3352761761500285,9.942044535886895,-0.318370279,-0.030075806,9.942044535886895,-0.318370279,-0.030075806,0,1.5,1,316.5150146484375,0.012546565383672714,0,149.39999389648438,-86.9109907,40.4279939,-0.006323952,0.002028141,3.959743592601556E-5,-0.021579354,0.013062734,5.873531307980346E-4,-111.5143417,31.89128730773926,-58.9574749,-4.70E-05,2.34941289258691E-4,-1.76E-04,-70.53454323,34.11132141113281,-10.7175778,-132.6666667,Classroom
119,-0.166894323,0.004260975,-0.015619011,0.9858418095459058,0.003189501,0.032223663,0.33535094689396977,9.941362103212226,-0.321099955,-0.028414769,9.941362103212226,-0.321099955,-0.028414769,0,1.5,1,316.5150146484375,0.012546565383672714,0,149.39999389648438,-86.9109907,40.4279939,0.00181225,-6.14E-04,0.003356368,-0.021753279,0.013508323923621363,6.21225715962971E-4,-111.5830276,31.88360126495361,-58.94442108,-2.21E-04,6.805313163373655E-4,-1.42E-04,-70.60322891,34.10375732421875,-10.70476775,-130.125,Classroom
120,-0.166862289,0.004277255,-0.015564291,0.9858480477796018,0.003240919,0.032121035,0.33528501171510194,9.942456856514644,-0.316796361,-0.030157115,9.942456856514644,-0.316796361,-0.030157115,0,1.5,1,316.5150146484375,0.012546565383672714,0,149.39999389648438,-86.9109907,40.4279939,6.745625468133722E-4,0.002759328,0.002131328,-0.021693973,0.013389713,2.772534691086672E-4,-111.5160503,31.86847330093384,-59.00761673,-1.62E-04,5.619201805777124E-4,-4.86E-04,-70.53588554,34.08838527679443,-10.76723176,-135.8888889,Classroom
121,-0.166775956,0.004255664,-0.015583958,0.9858624055547621,0.003194579,0.032152389,0.33511064932184315,9.946708160696678,-0.318968484,-0.030247137,9.946708160696678,-0.318968484,-0.030247137,0,1.5,1.1729227304458618,15.838000297546387,0.036578022,0,149.39999389648438,-86.9109973,40.4279958,7.596802942961165E-4,0.001020505,0.001591042,-0.021646529,0.013164351576740303,6.449479475228604E-4,-111.6120641,31.837851371765137,-58.95893883,-1.14E-04,3.3655909943457657E-4,-1.19E-04,-70.63214317,34.05812927246094,-10.71928575,-131.5,Classroom
122,-0.16681744,0.004276992,-0.01568445,0.9858537333682903,0.003201774,0.032357794,0.3351949227666392,9.907095936895574,-0.321773663,-0.027897873,9.907095936895574,-0.321773663,-0.027897873,0,1.5,1.1729227304458618,15.838000297546387,0.036578022,0,149.39999389648438,-86.9109973,40.4279958,-0.019806297,-3.39E-04,0.003949714,-0.021670251,0.013271101655492794,5.975034849682045E-4,-111.5918121,31.839437351226806,-59.01274086,-1.38E-04,4.433090855069097E-4,-1.66E-04,-70.61201302,34.05922733306885,-10.77223377,-129.6666667,Classroom
123,-0.16682731,0.004263192,-0.015836646,0.9858496518968378,0.003123421,0.032653444564168896,0.33521655057240457,9.891713078205402,-0.322317811,-0.031115322,9.891713078205402,-0.322317811,-0.031115322,0,1.5,1.1729227304458618,15.838000297546387,0.036578022,0,149.39999389648438,-86.9109973,40.4279958,-0.009539512,9.409409124874374E-4,-2.33E-04,-0.021682112,0.013022018311708008,7.63559057851982E-4,-111.5765616,31.871523323059083,-59.07508286,-1.50E-04,1.942257490687217E-4,0,-70.59639694,34.091435279846195,-10.83555182,-136,Classroom
124,-0.166801667,0.004240083,-0.015976898,0.9858518717358413,0.003031874,0.03292218,0.33516632671495084,9.897373616116719,-0.329951076,-0.02644011,9.897373616116719,-0.329951076,-0.02644011,0,1.5,1.1729227304458618,15.838000297546387,0.036578022,0,149.39999389648438,-86.9109973,40.4279958,0.001741919,-0.003903323,0.004468211,-0.021812584,0.013318546,4.5517015890263527E-4,-111.5388643,31.87664737701416,-59.00554276,-2.80E-04,4.907534881585359E-4,-3.08E-04,-70.55882103,34.096559295654295,-10.76564575,-140.3333333,Classroom
125,-0.166916122,0.004301679,-0.016037016,0.9858312155436544,0.003129494,0.033061745,0.33539712544783806,9.899568992911034,-0.321471657,-0.029666355,9.899568992911034,-0.321471657,-0.029666355,0,1.5,1.1729227304458618,15.838000297546387,0.036578022,0,149.39999389648438,-86.9109973,40.4279958,0.001510676,0.005513053,0.001562924,-0.02176514,0.013377851661909553,6.212257148327251E-4,-111.556554,31.850783252716063,-59.00749489,-2.33E-04,5.500591004005118E-4,-1.42E-04,-70.57638885,34.070939216613766,-10.76771973,-137.625,Classroom
126,-0.166810306,0.004276958,-0.015978527,0.9858502039631594,0.003103803,0.032937764,0.33518271857094994,9.906192844353834,-0.322758088,-0.028368306,9.906192844353834,-0.322758088,-0.028368306,0,1.5,1.1729227304458618,15.838000297546387,0.036578022,0,149.39999389648438,-86.9109973,40.4279958,0.003724839,0.004664654,6.694551376463141E-4,-0.021741418,0.013010157154674091,3.4842014626952487E-4,-111.6043781,31.85822540283203,-58.98553478,-2.09E-04,1.8236461407459767E-4,-4.15E-04,-70.62421272,34.07838119506836,-10.74527176,-136.8888889,Classroom
127,-0.166615741,0.004212291,-0.015793894,0.9858863542859371,0.00304425,0.032551445,0.33478848148997015,9.948099191906383,-0.321384539,-0.027741062,9.948099191906383,-0.321384539,-0.027741062,0,1.5,1.1729227304458618,15.838000297546387,0.036578022,0,149.39999389648438,-86.9109973,40.4279958,0.021440964478712816,0.001597753,0.003345069,-0.021685078,0.013238939796932615,4.2289423492128175E-4,-111.5833935,31.88445536,-59.04677883,-1.53E-04,4.111471985547374E-4,-3.41E-04,-70.60310677,34.10461135864258,-10.80700378,-139.875,Classroom
128,-0.166503607,0.004188257,-0.015605563,0.9859084180257853,0.003063295,0.03217162,0.3345602490369556,9.961271295269716,-0.317809826,-0.02681181,9.961271295269716,-0.317809826,-0.02681181,0,1.5,1.1729227304458618,15.838000297546387,0.036578022,0,149.39999389648438,-86.9109973,40.4279958,0.00796194,0.002609407,0.003748019,-0.021682112,0.013330407241739116,6.212257052256355E-4,-111.5078757,31.823089294433593,-58.93880871,-1.50E-04,5.026145999826202E-4,-1.42E-04,-70.52807671,34.043123207092286,-10.69891174,-138.2222222,Classroom
129,-0.16648897,0.004194955,-0.015523427,0.9859121488135996,0.003104339,0.032011811702864844,0.33452972422525723,9.955559342,-0.316386909,-0.029274327,9.955559342,-0.316386909,-0.029274327,0,1.5,1.1729227304458618,15.838000297546387,0.036578022,0,149.39999389648438,-86.9109973,40.4279958,-0.002727833,0.002571508,0.001707896,-0.021705834,0.013152490514647034,7.279757415939086E-4,-111.5790015,31.875061378479003,-59.02384289,-1.73E-04,3.246979486170107E-4,-3.56E-05,-70.59908073,34.09472938537598,-10.78431176,-143.4444444,Classroom
130,-0.166419681,0.004171604,-0.015456664,0.9859249719138284,0.003082758,0.031872181,0.33438935441878237,9.954723024831235,-0.318620015,-0.030885997,9.954723024831235,-0.318620015,-0.030885997,0,1.5,1.1729227304458618,15.838000297546387,0.036578022,0,149.39999389648438,-86.9109973,40.4279958,-5.84E-04,-0.001122992,-1.43E-04,-0.021753279,0.013342268267664516,6.923923886028453E-4,-111.5481363,31.817477378845215,-59.08362259,-2.21E-04,5.144757994007572E-4,-7.12E-05,-70.56821518,34.037755241394045,-10.84372579,-138.75,Classroom
131,-0.166465846,0.004182931,-0.015526042,0.985915987,0.003080495,0.03201302,0.33448321553109917,9.947143813938771,-0.317632687,-0.027770101,9.947143813938771,-0.317632687,-0.027770101,0,1.5,1,16.138999938964844,0.083133616,0,149.39999389648438,-86.9109882,40.4279925,-0.003375924,0.001126782,0.002911282,-0.021575362,0.013235518333583492,6.805312615204422E-4,-111.5611901,31.903121280670167,-58.99383099,-4.30E-05,4.077257833769093E-4,-8.30E-05,-70.58090279,34.12315532684326,-10.75283576,-120.3333333,Classroom
132,-0.166714226,0.004232766,-0.015677671,0.9858714237953853,0.003120162,0.032329426,0.3349868229870657,9.916495506580059,-0.324454671,-0.031227486,9.916495506580059,-0.324454671,-0.031227486,0,1.5,1,16.138999938964844,0.083133616,0,149.39999389648438,-86.9109882,40.4279925,-0.017322827,-0.002703715,6.272580872461634E-4,-0.021575362,0.013022018234851291,4.5517017359583125E-4,-111.5471599,31.878233375549318,-59.01493694,-4.30E-05,1.942257728038844E-4,-3.08E-04,-70.56711662,34.09826740264893,-10.77516178,-110.125,Classroom
133,-0.166773335,0.004241346,-0.015857858,0.9858585381970822,0.003075035,0.032687814,0.3351078698936018,9.894307118017696,-0.322935228,-0.027738157,9.894307118017696,-0.322935228,-0.027738157,0,1.5,1,16.138999938964844,0.083133616,0,149.39999389648438,-86.9109882,40.4279925,-0.010094059,-1.93E-04,0.003158558,-0.021575362,0.013211796069246473,8.110034927156148E-4,-111.5628976,31.842853298187254,-58.99017078,-4.30E-05,3.8400354277505315E-4,4.7444447296337016E-5,-70.58297722,34.06276527404785,-10.75051781,-131.2222222,Classroom
134,-0.166685018,0.004204157,-0.015958836,0.985872007,0.00297093,0.032874293082836764,0.33493062304061594,9.896249863707904,-0.326030797,-0.029828973,9.896249863707904,-0.326030797,-0.029828973,0,1.5,1,16.138999938964844,0.083133616,0,149.39999389648438,-86.9109882,40.4279925,-0.001008617,3.060339723975913E-4,-0.001707761,-0.021421168,0.012855962714523946,5.619201636240247E-4,-111.6116978,31.85883539199829,-59.0088369,1.1119791148320853E-4,2.8170183531542136E-5,-2.02E-04,-70.63189857,34.07850322723389,-10.76869574,-135.875,Classroom
135,-0.166655894,0.004201574,-0.015968021,0.9858768177263945,0.002963742,0.032891424,0.3348716656559879,9.901235821177659,-0.32619632,-0.025789633,9.901235821177659,-0.32619632,-0.025789633,0,1.5,1,16.138999938964844,0.083133616,0,149.39999389648438,-86.9109882,40.4279925,0.002980408,-2.30E-04,0.004012031,-0.02155164,0.013093185,6.686701655197997E-4,-111.5764397,31.867619285583498,-58.98602287,-1.93E-05,2.653924041897854E-4,-9.49E-05,-70.59639702,34.08789737701416,-10.74636979,-128.2222222,Classroom
136,-0.166722825,0.004260805,-0.015935677,0.9858657413950334,0.003089123,0.03284762,0.33500536760458577,9.908829596436139,-0.321227728,-0.029849301,9.908829596436139,-0.321227728,-0.029849301,45,1.5,1.1027408838272095,16.13800048828125,0.20365789532661438,304.4240417480469,149.39999389648438,-86.9109987,40.4279979,0.004894669,0.004173569,5.675628423117674E-4,-0.021602848,0.013121469129915707,4.8162954492279544E-4,-111.5480138,31.839925289154053,-58.9894389,-7.05E-05,2.9367659870051564E-4,-2.82E-04,-70.56772728,34.06008132934571,-10.75015175,-124.25,Classroom
137,-0.166461027,0.004161673,-0.015837333,0.9859120232387654,0.002935033,0.032619769,0.3344764671858075,9.917073824,-0.322668069,-0.027485518,9.917073824,-0.322668069,-0.027485518,45,1.5,1.1027408838272095,16.13800048828125,0.20365789532661438,304.4240417480469,149.39999389648438,-86.9109987,40.4279979,0.001684115,9.821401637734718E-4,0.001685815,-0.021468612,0.012844101634346744,7.161146077300305E-4,-111.558384,31.88347927093506,-59.05080498,6.375345231929016E-5,1.6309026497624162E-5,-4.74E-05,-70.57834068,34.10351329803467,-10.81017579,-125.8888889,Classroom
138,-0.166507373,0.00418521,-0.01589479,0.9859031473548667,0.00296081,0.032741128,0.33457023426167015,9.908463663267858,-0.324073561,-0.027624905,9.908463663267858,-0.324073561,-0.027624905,45,1.5,1.1027408838272095,16.13800048828125,0.20365789532661438,304.4240417480469,149.39999389648438,-86.9109987,40.4279979,-0.003382405,6.773260611932254E-4,0.001791757,-0.021599085,0.013140629452553768,6.330868108333676E-4,-111.5665574,31.85737133026123,-59.01066685,-6.67E-05,3.1283687804689977E-4,-1.30E-04,-70.58663658,34.07752758026123,-10.77113573,-119.8888889,Classroom
139,-0.166405696,0.004137888,-0.015909096,0.9859202880303837,0.002866064,0.032753275,0.3343655171903592,9.909419115307262,-0.326007566,-0.02915817,9.909419115307262,-0.326007566,-0.02915817,45,1.5,1.1027408838272095,16.13800048828125,0.20365789532661438,304.4240417480469,149.39999389648438,-86.9109987,40.4279979,6.99802509789328E-4,-0.001233976,-6.90E-04,-0.021622807,0.012927129,6.212257074861272E-4,-111.5171487,31.83760736465454,-59.04726688,-9.04E-05,9.933684712944968E-5,-1.42E-04,-70.53734856,34.05788558959961,-10.80651575,-128.125,Classroom
140,-0.166417503,0.004153339,-0.015862366,0.985918998,0.002911694,0.032666242,0.33438862064509717,9.910110242158463,-0.32032461,-0.026393647,9.910110242158463,-0.32032461,-0.026393647,45,1.5,1.1027408838272095,16.13800048828125,0.20365789532661438,304.4240417480469,149.39999389648438,-86.9109987,40.4279979,6.0626835498995E-4,0.003576309,0.002529829,-0.021753279,0.013235518,5.263368417147222E-4,-111.5320319,31.83577730178833,-59.06983692,-2.21E-04,4.077257200831421E-4,-2.37E-04,-70.55198914,34.05593338012695,-10.82957373,-137.3333333,Classroom
141,-0.166328101,0.004119881,-0.015858327,0.9859343101677386,0.002850016,0.032646869,0.33420821937542516,9.915454387664795,-0.324152692,-0.028230705,9.915454387664795,-0.324152692,-0.028230705,45,1.5,1,16.868999481201172,0.1999732106924057,142.81129455566406,149.39999389648438,-86.9109905,40.42799,0.003654656,-5.85E-04,3.911303446709531E-4,-0.021705834,0.013093184941963664,6.686701536522183E-4,-111.5126339,31.864813289642335,-58.96845493,-1.73E-04,2.653923533287225E-4,-9.49E-05,-70.53283516,34.08509147644043,-10.72806977,-138.125,Classroom
142,-0.166237754,0.004100219,-0.015810365,0.9859504115234301,0.002830166,0.032545446,0.33402512171893445,9.921627072454656,-0.32168945,-0.026718885,9.921627072454656,-0.32168945,-0.026718885,45,1.5,1,16.868999481201172,0.1999732106924057,142.81129455566406,149.39999389648438,-86.9109905,40.42799,0.001611367,0.001606741,0.001217225,-0.021622806,0.013022018325270958,6.330868272219324E-4,-111.5569192,31.86957139968872,-59.0109108,-9.04E-05,1.9422569199130661E-4,-1.30E-04,-70.57687698,34.08960536956787,-10.77137973,-132.2222222,Classroom
143,-0.166263276,0.004116769,-0.015852802,0.9859453630678862,0.002847859,0.032634724,0.33407672718890663,9.914326640008722,-0.32371057,-0.028461232,9.914326640008722,-0.32371057,-0.028461232,45,1.5,1,16.868999481201172,0.1999732106924057,142.81129455566406,149.39999389648438,-86.9109905,40.42799,-0.001979189,2.091003274454654E-4,-2.68E-04,-0.021693973,0.012986434976235755,5.381979399758563E-4,-111.523126,31.897387390136718,-58.97723888,-1.62E-04,1.5864236330052892E-4,-2.25E-04,-70.54320496,34.11717731,-10.73673176,-133.25,Classroom
144,-0.166334998,0.004160964,-0.015928911,0.9859318524888419,0.00290735,0.032799753,0.3342214788048013,9.911655083443355,-0.324337818,-0.028461231,9.911655083443355,-0.324337818,-0.028461231,45,1.5,1,16.868999481201172,0.1999732106924057,142.81129455566406,149.39999389648438,-86.9109905,40.42799,-9.34E-04,6.429437294747065E-4,6.37191013225074E-4,-0.021741417,0.013128768363334601,5.737812794039695E-4,-111.6032793,31.82552930831909,-58.98041092,-2.09E-04,3.0097570575466287E-4,-1.90E-04,-70.62311485,34.045807418823244,-10.74075777,-136.8888889,Classroom
145,-0.166378487,0.004314441,-0.015928143,0.9859237223863602,0.003208822,0.032849562,0.33430492132902145,9.911925158454377,-0.318901698,-0.023873053,9.911925158454377,-0.318901698,-0.023873053,45,1.5,1,16.868999481201172,0.1999732106924057,142.81129455566406,149.39999389648438,-86.9109905,40.42799,-0.001846598,0.007257195,0.007770334,-0.021485377,0.013485628,2.3494157805823936E-5,-111.6112093,31.862617282867433,-58.98785275,4.698824005362649E-5,6.578354883598737E-4,-7.40E-04,-70.6314109,34.08240745544433,-10.74819977,-90,Classroom
146,-0.166439003,0.004625601,-0.014999748,0.9859261790525566,0.004130088,0.031122320376842923,0.3344124703152666,9.919756991191974,-0.311069847,-0.04678491,9.919756991191974,-0.311069847,-0.04678491,45,1.5,1,16.868999481201172,0.1999732106924057,142.81129455566406,149.39999389648438,-86.9109905,40.42799,0.002904475,-0.002304565,-0.005796676,-0.021729557,0.014540240572069239,0.005069143,-111.626338,31.781121311187743,-58.90086689,-1.97E-04,0.001712448,0.004305584,-70.64641678,34.001277465820316,-10.6603598,-79.625,Classroom
147,-0.166355512,0.00473395,-0.013670667,0.9859596953808683,0.004788548,0.028536370168756514,0.3342320406899869,9.951874279281467,-0.281084061,-0.04377065,9.951874279281467,-0.281084061,-0.04377065,45,1.5,1,16.868999481201172,0.1999732106924057,142.81129455566406,149.39999389648438,-86.9109905,40.42799,0.019219167024186513,0.002529812,0.003853374,-0.021812584,0.013306685027132914,4.077257110411753E-4,-111.5672903,31.65802343,-58.89598686,-2.80E-04,4.7889236898785364E-4,-3.56E-04,-70.58712494,33.87805728912353,-10.65535773,-115.7777778,Classroom
148,-0.1661736,0.004689716,-0.013439615,0.9859937458362394,0.004783329,0.028065076586112236,0.3338631128223197,9.969637500429616,-0.276251955,-0.046047317,9.969637500429616,-0.276251955,-0.046047317,45,1.5,1,16.868999481201172,0.1999732106924057,142.81129455566406,149.39999389648438,-86.9109905,40.42799,0.009517827,0.003403579,0.001654445,-0.021788862,0.013247379445407576,4.433090674229762E-4,-111.547038,31.683765487670897,-58.95759693,-2.56E-04,4.195868076069407E-4,-3.20E-04,-70.56723907,33.90379920959472,-10.71721182,-121.5,Classroom
149,-0.166091767,0.004686213,-0.013289419,0.9860096006717497,0.004828657,0.027767253,0.3336965204442589,9.966472236855516,-0.275447572,-0.046024085,9.966472236855516,-0.275447572,-0.046024085,45,1.5,1,16.868999481201172,0.1999732106924057,142.81129455566406,149.39999389648438,-86.9109905,40.42799,-2.55E-04,0.00143173,0.00216101,-0.021610945,0.013294823856536046,6.923923727794035E-4,-111.5725359,31.67217535018921,-58.93051281,-7.86E-05,4.6703125546840063E-4,-7.12E-05,-70.59249237,33.89196537017822,-10.69098181,-124,Classroom
150,-0.166095183,0.004693156,-0.013266625,0.9860093038058976,0.004849831,0.027724614186049663,0.3337031666514943,9.960187646,-0.275082572,-0.046153868,9.960187646,-0.275082572,-0.046153868,45,1.5,1,16.868999481201172,0.1999732106924057,142.81129455566406,149.39999389648438,-86.9109905,40.42799,-0.002676019,0.00146127,0.002098355,-0.021682112,0.013247379454449542,5.500590478440801E-4,-111.5761963,31.675347385406493,-58.90294086,-1.50E-04,4.1958680930230947E-4,-2.14E-04,-70.59615257,33.89538150787354,-10.6627998,-126.75,Classroom
151,-0.166203701,0.004741009,-0.013288147,0.9859904635299757,0.004934033,0.027783554372856917,0.33392215816720017,9.956447953159369,-0.275929621,-0.048056823,9.956447953159369,-0.275929621,-0.048056823,0,1.5,1,15.852999687194824,0.026955135,0,149.39999389648438,-86.910989,40.4279924,-0.002449165,0.001275678,0.001660361,-0.021812584,0.013401573935288538,3.9586459865196817E-4,-111.579246,31.64277344,-59.02677086,-2.80E-04,5.737812918366737E-4,-3.68E-04,-70.59932457,33.86280735015869,-10.78687374,-126.6666667,Classroom
152,-0.166168633,0.004717779,-0.01336933,0.9859954222892094,0.004862204,0.027935731034834408,0.3338519641496603,9.924591999609493,-0.277846202,-0.046140242,9.924591999609493,-0.277846202,-0.046140242,0,1.5,1,15.852999687194824,0.026955135,0,149.39999389648438,-86.910989,40.4279924,-0.017765378,-4.02E-04,0.00177751,-0.021492334,0.013033879396406193,7.991423938893577E-4,-111.5864442,31.618983516693117,-58.88549492,4.00312456248093E-5,2.060868117271118E-4,3.558333547225276E-5,-70.60652267,33.83913928985596,-10.64547579,-125,Classroom
153,-0.166246261,0.004728649,-0.013573118,0.9859795061129968,0.004813693,0.028341667419209064,0.33401007067809985,9.899249780525281,-0.281566113,-0.046767486,9.899249780525281,-0.281566113,-0.046767486,0,1.5,1,15.852999687194824,0.026955135,0,149.39999389648438,-86.910989,40.4279924,-0.012969063,-3.79E-04,0.001122556,-0.021516056,0.012927129403552383,5.975034974009088E-4,-111.5570419,31.63472137451172,-58.91916683,1.630902536737832E-5,9.933680700572226E-5,-1.66E-04,-70.57712051,33.85475540161133,-10.6792698,-132.7777778,Classroom
154,-0.16619596,0.00470461,-0.013618908,0.9859874724195554,0.004752495,0.028423748534316055,0.3339088808458585,9.898274005038067,-0.281754869,-0.046511942,9.898274005038067,-0.281754869,-0.046511942,0,1.5,1,15.852999687194824,0.026955135,0,149.39999389648438,-86.910989,40.4279924,-0.001945129,-1.08E-04,5.66212352938377E-4,-0.021614595,0.012886527916774727,7.165708112342355E-4,-111.6020596,31.635819454193115,-58.94368889,-8.22E-05,5.873530720306847E-5,-4.70E-05,-70.62201675,33.85573143005371,-10.70379181,-130.8888889,Classroom
155,-0.166181242,0.004686189,-0.013665297,0.9859893946971708,0.004701159,0.028509051475710083,0.33387973644201036,9.902734450923587,-0.281638711,-0.045884698,9.902734450923587,-0.281638711,-0.045884698,0,1.5,1,15.852999687194824,0.026955135,0,149.39999389648438,-86.910989,40.4279924,0.001933477,8.436884116200567E-4,7.207712285148287E-4,-0.021670251,0.013057601656222228,6.212257267003065E-4,-111.5764401,31.64338348388672,-58.95296082,-1.19E-04,1.9126042420749816E-4,-1.23E-04,-70.59627464,33.86353916168213,-10.7129418,-134.625,Classroom
156,-0.166171327,0.004685167,-0.013613977,0.9859917817763912,0.004716486,0.028407442,0.3338594115474849,9.9066837,-0.279826671,-0.046140242,9.9066837,-0.279826671,-0.046140242,0,1.5,1,15.895000457763672,0.064971872,0,149.39999389648438,-86.9109897,40.4279954,0.00217435,0.001755239,6.34311219152895E-4,-0.021729556,0.013188073899850104,4.551701628584957E-4,-111.6269481,31.68315523147583,-58.97492092,-4.45E-05,5.48576506632335E-5,-1.56E-04,-70.64702682,33.903433341979984,-10.73526775,-140.4444444,Classroom
157,-0.166070003,0.004648037,-0.013567028,0.9860096730074837,0.004661751,0.028302027093409336,0.3336546403690449,9.915003277,-0.281232163,-0.04449082,9.915003277,-0.281232163,-0.04449082,0,1.5,1,15.895000457763672,0.064971872,0,149.39999389648438,-86.9109897,40.4279954,0.003681729,-5.15E-04,0.001774215,-0.021622806,0.013211796,6.09364609790116E-4,-111.6023038,31.628133449554444,-58.90904095,6.227083933693402E-5,7.857988391849167E-5,-1.48E-06,-70.62238258,33.84792335510254,-10.66975381,-136.125,Classroom
158,-0.166114074,0.004652426,-0.013660759,0.9860009342721365,0.004638003,0.028488567261730584,0.3337443699535814,9.912003563445749,-0.282692831,-0.047627044,9.912003563445749,-0.282692831,-0.047627044,0,1.5,1,15.895000457763672,0.064971872,0,149.39999389648438,-86.9109897,40.4279954,-5.38E-04,-9.39E-05,-0.001593366,-0.021634667,0.012927129,5.026145977221285E-4,-111.58742,31.66607532501221,-59.00395687,5.0409726382603926E-5,-2.06E-04,-1.08E-04,-70.60762077,33.886109313964845,-10.76332777,-132.5555556,Classroom
159,-0.166070405,0.004626184,-0.013684643,0.9860080729410486,0.004579559,0.028526769,0.33365660847969425,9.910547935045683,-0.282821859,-0.044888433,9.910547935045683,-0.282821859,-0.044888433,0,1.5,1,15.895000457763672,0.064971872,0,149.39999389648438,-86.9109897,40.4279954,-6.39E-04,1.0538101196289062E-4,6.333547237428646E-4,-0.021646529,0.012986434967193788,5.856423759697349E-4,-111.6166999,31.667051315307617,-58.89610874,3.854862473073226E-5,-1.47E-04,-2.52E-05,-70.63690041,33.88696319580078,-10.65633379,-139.625,Classroom
160,-0.165892854,0.004545332,-0.013696896,0.9860381819669483,0.00442112,0.02852327,0.33329867072475766,9.913676187830063,-0.283079052,-0.045582691,9.913676187830063,-0.283079052,-0.045582691,0,1.5,1,15.895000457763672,0.064971872,0,149.39999389648438,-86.9109897,40.4279954,0.001411577,-1.07E-04,-0.001699162,-0.021599084,0.012891546072601115,5.975034996614005E-4,-111.6154798,31.666441383361818,-58.97040695,8.599306072461085E-5,-2.42E-04,-1.33E-05,-70.63568077,33.88671917,-10.7292898,-136.2222222,Classroom
161,-0.166055366,0.004620115,-0.013703475,0.9860103570141838,0.004561747,0.028561845,0.33362635651838435,9.913986946772603,-0.282916432,-0.047115955,9.913986946772603,-0.282916432,-0.047115955,0,1.5,1,15.904999732971191,0.086817861,0,149.39999389648438,-86.9109933,40.4279921,6.821456464748938E-4,4.6417724739000635E-4,-0.001625881,-0.021670251,0.012998296047370989,4.195868256908742E-4,-111.5577741,31.632525386810304,-58.94307884,1.482642142698892E-5,-1.35E-04,-1.91E-04,-70.57773109,33.85231540679931,-10.70269379,-138.375,Classroom
162,-0.166115826,0.004666409,-0.013659092,0.9860005922687863,0.004666094,0.028489940447136035,0.3337475394161002,9.919460666989817,-0.282193356,-0.045815003,9.919460666989817,-0.282193356,-0.045815003,0,1.5,1,15.904999732971191,0.086817861,0,149.39999389648438,-86.9109933,40.4279921,0.002051298,7.345873175315487E-4,2.6554364747214087E-4,-0.021682112,0.013152490559856869,5.500590478440801E-4,-111.573268,31.67119941711426,-58.89513302,2.9652824770044356E-6,1.9274331014422536E-5,-6.08E-05,-70.59310272,33.89123348236084,-10.65486977,-139.3333333,Classroom
163,-0.166098551,0.004657644,-0.013691115,0.9860030974333103,0.004638655,0.028550112,0.33371287985489917,9.914332473,-0.283529157,-0.044862521,9.914332473,-0.283529157,-0.044862521,0,1.5,1,15.904999732971191,0.086817861,0,149.39999389648438,-86.9109933,40.4279921,-0.002287269,-4.60E-04,0.001172588,-0.021602848,0.013227192711873123,4.3464130486916896E-4,-111.5974239,31.649727420806883,-58.95686481,8.222944765853194E-5,9.397652768082201E-5,-1.76E-04,-70.61738075,33.86963943481445,-10.71708977,-136,Classroom
164,-0.166142774,0.004694311,-0.013624889,0.9859963846438139,0.004731713,0.028431884221081595,0.3338012880491979,9.916103872280676,-0.281667749,-0.047952282,9.916103872280676,-0.281667749,-0.047952282,0,1.5,1,15.904999732971191,0.086817861,0,149.39999389648438,-86.9109933,40.4279921,0.00104657,4.147045241976247E-4,-9.78E-04,-0.021634668,0.012879684929130147,8.70309059747757E-4,-111.550698,31.646189289093016,-58.93697865,5.0409735424570666E-5,-2.54E-04,2.594617866793448E-4,-70.57065483,33.86622329711914,-10.69695977,-118,Classroom
165,-0.166154001,0.004710701,-0.013610072,0.9859946231240208,0.004768654,0.028408156038777343,0.3338235486479639,9.917860771845845,-0.281847792,-0.0477432,9.917860771845845,-0.281847792,-0.0477432,0,1.5,1,15.904999732971191,0.086817861,0,149.39999389648438,-86.9109933,40.4279921,0.001510602,2.9734905483653244E-5,-3.96E-04,-0.021777001,0.012962713,5.026145898104075E-4,-111.5369118,31.65802345275879,-58.91160278,-9.19E-05,-1.71E-04,-1.08E-04,-70.55699066,33.87793537139893,-10.67109573,-94.66666667,Classroom
166,-0.165950748,0.004580425,-0.013791473,0.986026929,0.004457277,0.028721769222790756,0.33341563963195653,9.915976079922277,-0.286200754,-0.044606977,9.915976079922277,-0.286200754,-0.044606977,0,1.5,1,17.60300064086914,0.072866522,0,149.39999389648438,-86.9109932,40.4279958,-7.27E-04,-0.001218381,-3.45E-04,-0.021646529,0.012725490543231802,5.619201800125895E-4,-111.5347163,31.669613399505614,-58.97174904,3.8548651856632485E-5,-4.08E-04,-4.89E-05,-70.55467255,33.88915927886963,-10.73221772,-68.625,Classroom
167,-0.16601545,0.004612186,-0.013750189,0.9860164337945216,0.004531789,0.028651219,0.3335458604456152,9.924452661310585,-0.281798427,-0.046372554,9.924452661310585,-0.281798427,-0.046372554,0,1.5,1,17.60300064086914,0.072866522,0,149.39999389648438,-86.9109932,40.4279958,0.00253595,0.002622757,-0.001348696,-0.021622807,0.013199934934817472,6.686702033830355E-4,-111.564728,31.64789747238159,-58.9588171,6.227087889553853E-5,6.671874496850719E-5,5.782287041159365E-5,-70.58480675,33.86829719543457,-10.71965178,-71.55555556,Classroom
168,-0.166120994,0.004634196,-0.013707238,0.9859991658081129,0.004586388,0.028574291327335303,0.3337591498800852,9.918937224608202,-0.284932836,-0.045049488,9.918937224608202,-0.284932836,-0.045049488,0,1.5,1,17.60300064086914,0.072866522,0,149.39999389648438,-86.9109932,40.4279958,-0.00212787,-0.001227998,3.753497256237326E-4,-0.021646529,0.013093184932921697,6.330868362638991E-4,-111.5970582,31.678275451660156,-58.94332294,3.8548665419582605E-5,-4.00E-05,2.223953663470965E-5,-70.61725883,33.898553352355954,-10.70354777,-76.25,Classroom
169,-0.166173269,0.00464661,-0.013811749,0.9859888385800482,0.004574641,0.028784794407417474,0.3338653838750228,9.915845398764008,-0.289000124,-0.041203593,9.915845398764008,-0.289000124,-0.041203593,0,1.5,1,17.60300064086914,0.072866522,0,149.39999389648438,-86.9109932,40.4279958,-0.001241369,-0.002464125,0.00202966,-0.02176514,0.012369657184553413,-2.45E-04,-111.6074274,31.672785339355467,-58.92014294,-8.01E-05,-7.64E-04,-8.55E-04,-70.62738434,33.892941322326664,-10.68122177,-90.11111111,Classroom
170,-0.165758914,0.004530859,-0.0138363,0.9860587397825371,0.004350261,0.02879298,0.33302810585614545,9.916696326246539,-0.284382906,-0.047339557,9.916696326246539,-0.284382906,-0.047339557,0,1.5,1,17.60300064086914,0.072866522,0,149.39999389648438,-86.9109932,40.4279958,5.428351244880158E-4,3.510317177448458E-4,-0.001734554,-0.021836307,0.013425296041391139,0.00141592,-111.57644,31.617641506195067,-58.95527874,-1.51E-04,2.9207984928168284E-4,8.050729243708684E-4,-70.59639687,33.83779735565186,-10.71477176,-79.75,Classroom
171,-0.165831317,0.004566663,-0.013876111,0.9860459201544234,0.004405544,0.028883586,0.3331741482308767,9.916347744395432,-0.287426205,-0.044467589,9.916347744395432,-0.287426205,-0.044467589,0,1.5,1,17.60300064086914,0.072866522,0,149.39999389648438,-86.9109932,40.4279958,-2.68E-04,-8.00E-04,-6.49E-04,-0.021575362,0.013235518310978574,6.923923880377224E-4,-111.6051099,31.678275413513184,-58.8700008,1.0971528437277936E-4,1.0230210361079973E-4,8.154511496931026E-5,-70.62518867,33.897943344116214,-10.63071381,-108.5555556,Classroom
172,-0.166013077,0.0046751,-0.013838018,0.9860153616620944,0.004626786,0.028845254690028153,0.3335396997057475,9.936710070637824,-0.284449697,-0.044885752,9.936710070637824,-0.284449697,-0.044885752,0,1.5,1,17.60300064086914,0.072866522,0,149.39999389648438,-86.9109932,40.4279958,0.012121769098135142,0.001997801,9.288865213210767E-4,-0.021802548,0.013332916360993225,6.343413714113502E-4,-111.5559435,31.660707340240478,-58.91184689,-1.17E-04,1.9970007269876078E-4,2.349410015785207E-5,-70.5759008,33.880619316101075,-10.67182776,-113.6666667,Classroom
173,-0.165882688,0.004655706,-0.013556388,0.986041312,0.004685786,0.028282698985297703,0.33327436736486493,9.965307809774158,-0.279376563,-0.046604867,9.965307809774158,-0.279376563,-0.046604867,0,1.5,1,17.60300064086914,0.072866522,0,149.39999389648438,-86.9109932,40.4279958,0.013381985784734337,0.002294136,8.666269408846364E-5,-0.021741417,0.013306685,5.975034974009088E-4,-111.5388642,31.65985345840454,-59.00639679,-5.63E-05,1.7346877964141154E-4,-1.33E-05,-70.55882118,33.879887351989744,-10.76637777,-113,Classroom
174,-0.165868313,0.004667027,-0.013388106,0.9860459739722095,0.004764363,0.027954451432361187,0.3332441356575605,9.967151771471338,-0.278461832,-0.047255343,9.967151771471338,-0.278461832,-0.047255343,0,1.5,1,17.60300064086914,0.072866522,0,149.39999389648438,-86.9109932,40.4279958,0.002536848,2.86404658289789E-4,2.778635441678242E-4,-0.021705834,0.013022018361438825,5.737812720573715E-4,-111.5241022,31.670467376708984,-58.91758095,-2.08E-05,-1.11E-04,-3.71E-05,-70.54405891,33.89062339782715,-10.67780581,-126.1111111,Classroom
175,-0.165708741,0.004604831,-0.013382071,0.9860731860966359,0.004648176,0.027921156,0.3329220567513438,9.959320013,-0.27790428,-0.046163473,9.959320013,-0.27790428,-0.046163473,0,1.5,1,17.60300064086914,0.072866522,0,149.39999389648438,-86.9109932,40.4279958,-0.003903546,4.744636781007341E-4,2.063456380251542E-4,-0.021492334,0.013211796,7.516979505488812E-4,-111.5508199,31.69157341003418,-58.92892693,1.9274306714136912E-4,7.857987600677077E-5,1.4085067974096074E-4,-70.57089897,33.91160728,-10.68878578,-125.5,Classroom
176,-0.165880357,0.004695097,-0.013364475,0.9860441106037029,0.004827238,0.027917226830732476,0.33326773533543336,9.954937944134462,-0.279237175,-0.047859357,9.954937944134462,-0.279237175,-0.047859357,0,1.5,1,17.60300064086914,0.072866522,0,149.39999389648438,-86.9109932,40.4279958,-0.002409139,-0.001120604,2.654762667359658E-4,-0.021587223,0.013271101669055744,6.568090689540344E-4,-111.5485019,31.656193294525146,-58.89842701,9.785419402336611E-5,1.3788542212936485E-4,4.596176310849277E-5,-70.56858109,33.87622722625733,-10.65779778,-125.8888889,Classroom
177,-0.165785635,0.004660885,-0.013409088,0.9860596124408314,0.00474763,0.027993405111206387,0.3330766772760928,9.946256325795101,-0.280316874,-0.046614026,9.946256325795101,-0.280316874,-0.046614026,0,1.5,1,17.60300064086914,0.072866522,0,149.39999389648438,-86.9109932,40.4279958,-0.004923793,-0.001693297,8.159505872471818E-4,-0.021504195,0.012950851690494319,7.042535004269296E-4,-111.512878,31.661683254241943,-58.84950474,1.8088195644753072E-4,-1.82E-04,9.340620757921518E-5,-70.5328347,33.881961288452146,-10.60960781,-130.5,Classroom
178,-0.16585763,0.004682021,-0.013505977,0.9860460960749283,0.004755144,0.028191867655197395,0.3332225842383301,9.944742369,-0.280398741,-0.047325037,9.944742369,-0.280398741,-0.047325037,0,1.5,1,17.60300064086914,0.072866522,0,149.39999389648438,-86.9109932,40.4279958,-0.001065838,4.2759446264470667E-4,2.7056747269861905E-5,-0.021646528,0.013223657257927275,5.975034838379587E-4,-111.5326422,31.62532741546631,-58.91550678,3.8548613428273825E-5,9.044098896110087E-5,-1.33E-05,-70.55284286,33.84560535430908,-10.67536577,-131,Classroom
179,-0.165750139,0.004637787,-0.013478522,0.9860647395976538,0.004680039,0.028122537,0.33300561088960146,9.940546137615314,-0.280401644,-0.045815003,9.940546137615314,-0.280401644,-0.045815003,0,1.5,1,17.60300064086914,0.072866522,0,149.39999389648438,-86.9109932,40.4279958,-0.003462967,-8.55E-04,5.293859946496278E-4,-0.021705834,0.013128768354292634,7.279757432892774E-4,-111.5410601,31.63789337158203,-58.97894676,-2.08E-05,-4.45E-06,1.1712843348787536E-4,-70.56126083,33.85792728424072,-10.73904978,-124.375,Classroom
180,-0.165865649,0.004681827,-0.013467288,0.9860452714475613,0.004767356,0.028115532,0.33323868935547984,9.938051575595892,-0.279887652,-0.047929051,9.938051575595892,-0.279887652,-0.047929051,0,1.5,1,17.60300064086914,0.072866522,0,149.39999389648438,-86.9109932,40.4279958,0.00101008,8.930338239206851E-5,-4.99E-04,-0.021741418,0.012927129403552383,5.619201850986959E-4,-111.5411817,31.636429386138914,-58.97809284,-5.63E-05,-2.06E-04,-4.89E-05,-70.56126106,33.85621929168701,-10.7379518,-124.2222222,Classroom
181,-0.165998215,0.004735224,-0.013477189,0.9860225675197748,0.004865631,0.028153436939017132,0.3335062259664902,9.945433505530497,-0.280735594,-0.049346159,9.945433505530497,-0.280735594,-0.049346159,0,1.5,1,17.60300064086914,0.072866522,0,149.39999389648438,-86.9109932,40.4279958,0.002578543,-9.46E-04,-7.54E-04,-0.021497124,0.013285928083440432,6.22594301463463E-4,-111.5516743,31.667173385620117,-59.01725491,1.8795300946714214E-4,1.5271182480948762E-4,1.1747024053385338E-5,-70.57150925,33.88720733642578,-10.77650375,-122.875,Classroom
182,-0.166126315,0.00477984,-0.013506392,0.9860003914647889,0.004940303,0.02822648,0.3337650356940853,9.933263093522452,-0.281397687,-0.048370445,9.933263093522452,-0.281397687,-0.048370445,45,1.5,1,17.72599983215332,0,0,149.39999389648438,-86.9109902,40.4279971,-0.007424234,-5.99E-04,7.985161201467792E-4,-0.021575362,0.013057601647180261,6.330868300475469E-4,-111.5533817,31.65411943435669,-58.95991486,1.0971528437277936E-4,-7.56E-05,2.2239553023274373E-5,-70.57346077,33.87439743041992,-10.72001782,-127.4444444,Classroom
183,-0.166220282,0.004808114,-0.013626288,0.985982764,0.004953522,0.028472836,0.33395543607693273,9.897484020122047,-0.282808987,-0.048765377,9.897484020122047,-0.282808987,-0.048765377,45,1.5,1,17.72599983215332,0,0,149.39999389648438,-86.9109902,40.4279971,-0.017678279,-3.15E-04,4.0809607621535514E-4,-0.021622806,0.013199935016195171,7.279757223797293E-4,-111.5782703,31.64362735748291,-58.95271675,6.227084046717986E-5,6.671876474780944E-5,1.1712844818107132E-4,-70.59834892,33.86353916168213,-10.71208777,-132.2222222,Classroom
184,-0.166449036,0.004887927,-0.013772461,0.9859417416517017,0.005055704,0.028788858554461626,0.33441801875540356,9.896104738550278,-0.289290516,-0.050043098,9.896104738550278,-0.289290516,-0.050043098,45,1.5,1,17.72599983215332,0,0,149.39999389648438,-86.9109902,40.4279971,-0.002486701,-0.004140801,5.9320871691101965E-5,-0.021777001,0.013081324,7.635590663288259E-4,-111.6001077,31.68230131149292,-58.98163071,-9.19E-05,-5.19E-05,1.5271177291598857E-4,-70.6200647,33.902335472106934,-10.74124576,-135,Classroom
185,-0.166364558,0.004842565,-0.013837838,0.98595532,0.004946939,0.028902269447746785,0.33424816229968396,9.898924374,-0.287301337,-0.049880479,9.898924374,-0.287301337,-0.049880479,45,1.5,1,17.72599983215332,0,0,149.39999389648438,-86.9109902,40.4279971,0.002091436,-0.001045732,-8.63E-04,-0.021539778,0.013057601665264195,6.21225715397848E-4,-111.6090134,31.634843406677245,-58.89354683,1.4529862662650717E-4,-7.56E-05,1.0378438938698434E-5,-70.62909264,33.85487731933594,-10.65352777,-134.5555556,Classroom
186,-0.166362444,0.004832064,-0.013857835,0.9859554426183978,0.004919626,0.028938213,0.3342442599315088,9.899613536,-0.285677716,-0.047419303,9.899613536,-0.285677716,-0.047419303,45,1.5,1,17.72599983215332,0,0,149.39999389648438,-86.9109902,40.4279971,-2.99E-05,9.027216040972367E-4,0.001460279,-0.021646528,0.013033879396406193,7.63559051070507E-4,-111.5914459,31.64667739868164,-58.97382298,3.854861455851967E-5,-9.93E-05,1.5271177856721779E-4,-70.61164688,33.866833267211916,-10.73429182,-135.125,Classroom
187,-0.166222324,0.004773145,-0.013783962,0.985980402,0.004832069,0.02877221,0.333961258,9.916144537694246,-0.284069284,-0.04846337,9.916144537694246,-0.284069284,-0.04846337,45,1.5,1,17.72599983215332,0,0,149.39999389648438,-86.9109902,40.4279971,0.010220805418144152,0.001381194,-7.49E-04,-0.021717695,0.013105046139686431,4.55170146469931E-4,-111.593764,31.658145484924315,-58.95466881,-3.26E-05,-2.82E-05,-1.56E-04,-70.61372078,33.87842327,-10.71477173,-136.6666667,Classroom
188,-0.16627709,0.004822373,-0.013598052,0.985973506,0.004989408,0.028422171466992895,0.3340701784902406,9.955298118,-0.280892405,-0.049160309,9.955298118,-0.280892405,-0.049160309,45,1.5,1,17.72599983215332,0,0,149.39999389648438,-86.9109902,40.4279971,0.018586677254982364,0.001453985,6.13325248354847E-4,-0.021705834,0.013294823910787847,5.500590501045717E-4,-111.6118198,31.655095405578614,-59.01847481,-2.08E-05,1.6160766047072932E-4,-6.08E-05,-70.63153275,33.87537338256836,-10.77857779,-135.875,Classroom
189,-0.166208128,0.004798996,-0.013493061,0.9859866922341504,0.004980181,0.028206965,0.33393043974070874,9.961251129224463,-0.279710513,-0.049532009,9.961251129224463,-0.279710513,-0.049532009,45,1.5,1,17.72599983215332,0,0,149.39999389648438,-86.9109902,40.4279971,0.005054631,0.001382294,1.5534088015556335E-4,-0.02165839,0.013188073899850104,5.856423878373162E-4,-111.61182,31.67607946395874,-58.94600674,2.668750160418957E-5,5.485764727249597E-5,-2.52E-05,-70.63189888,33.896113357543946,-10.70623178,-134.7777778,Classroom
190,-0.166175817,0.004788174,-0.013410607,0.9859933085166491,0.00498716,0.028040577191859484,0.33386483501929504,9.955364884682073,-0.275886062,-0.048974459,9.955364884682073,-0.275886062,-0.048974459,45,1.5,1,17.72599983215332,0,0,149.39999389648438,-86.9109902,40.4279971,-0.002651737,0.003534778,6.673546293034003E-4,-0.021685077,0.013274180989425916,3.5241189918731555E-4,-111.5871758,31.647775325775147,-58.97553074,5.5968904724487895E-12,1.4096475989880183E-4,-2.58E-04,-70.60688911,33.86817527770996,-10.7352678,-136.6666667,Classroom
191,-0.166322972,0.004861249,-0.013433163,0.985967828,0.005119618,0.028110119396621742,0.33416152058295834,9.954470486316866,-0.282986126,-0.050647111,9.954470486316866,-0.282986126,-0.050647111,45,1.5,1,17.72599983215332,0,0,149.39999389648438,-86.9109902,40.4279971,-4.57E-04,-0.002985762,3.753283504143502E-4,-0.021729556,0.013354129456345317,7.516979364208081E-4,-111.598766,31.663025398254394,-58.92014297,-4.45E-05,2.2091322467725688E-4,1.4085065374530635E-4,-70.61872284,33.88330345153808,-10.68073376,-140.125,Classroom
192,-0.166224859,0.004801258,-0.013469597,0.98598417,0.004991967,0.028161539759450745,0.3339642335488958,9.938905465950086,-0.281836177,-0.048114901,9.938905465950086,-0.281836177,-0.048114901,0,1.5,1,16.20400047302246,0.037201922,0,149.39999389648438,-86.910994,40.4279937,-0.009837225,-0.001483652,0.001607961,-0.021646529,0.012950851645284487,7.042534908198399E-4,-111.6020602,31.64545738220215,-59.02274479,3.854862473073226E-5,-1.82E-04,9.340621718630484E-5,-70.62189507,33.864759254455564,-10.78187176,-137,Classroom
193,-0.166417979,0.004864238,-0.013656729,0.9859487206033133,0.005048398,0.028552546844031048,0.3343551404846525,9.902200022947442,-0.287098065,-0.050391568,9.902200022947442,-0.287098065,-0.050391568,0,1.5,1,16.20400047302246,0.037201922,0,149.39999389648438,-86.910994,40.4279937,-0.017227006,-0.003656325,-2.57E-04,-0.021563501,0.013069462790651229,8.228646214933867E-4,-111.6102336,31.69706340789795,-58.90367279,1.2157639845735529E-4,-6.38E-05,2.1201735181571211E-4,-70.63006866,33.91685337,-10.66389781,-133,Classroom
194,-0.166393943,0.004837474,-0.01380923,0.9859507853545032,0.004945554,0.028844297944920733,0.33430779269598065,9.894022608266294,-0.286804769,-0.048788609,9.894022608266294,-0.286804769,-0.048788609,0,1.5,1,16.20400047302246,0.037201922,0,149.39999389648438,-86.910994,40.4279937,-0.00543686,-0.001056358,2.2847885356366057E-4,-0.02155164,0.012986434985277722,5.975034911845567E-4,-111.651592,31.685717334747313,-58.88305485,1.3343751141168538E-4,-1.47E-04,-1.33E-05,-70.6714267,33.905507202148435,-10.64230375,-134.875,Classroom
195,-0.166258496,0.004775529,-0.013828071,0.9859736746954686,0.004821048,0.02886018,0.33403478259021796,9.897980020596432,-0.284745897,-0.047925477,9.897980020596432,-0.284745897,-0.047925477,0,1.5,1,16.20400047302246,0.037201922,0,149.39999389648438,-86.910994,40.4279937,9.386932965621208E-4,0.001121612,-2.72E-04,-0.021658389,0.013010157245093757,6.330868340034074E-4,-111.6032798,31.685473365783693,-58.93124474,2.668750160418957E-5,-1.23E-04,2.2239560934995273E-5,-70.62311462,33.90538547515869,-10.69110379,-133,Classroom
196,-0.166260993,0.004786959,-0.013818893,0.9859733002857097,0.004846543,0.028845912442334646,0.33403949714401393,9.902618148951854,-0.285463162,-0.048695683,9.902618148951854,-0.285463162,-0.048695683,0,1.5,1,16.20400047302246,0.037201922,0,149.39999389648438,-86.910994,40.4279937,0.00136993,6.501399776310596E-4,-1.87E-04,-0.021788862,0.013152491,4.907535192402966E-4,-111.5622885,31.674005298614503,-58.93319687,-1.04E-04,1.9274296541924326E-5,-1.20E-04,-70.58236679,33.89379550933838,-10.69317779,-136.4444444,Classroom
197,-0.16647595,0.004888976,-0.013863762,0.985935904,0.005026595,0.028969431,0.3344730101164105,9.915316942826058,-0.288976893,-0.049648166,9.915316942826058,-0.288976893,-0.049648166,0,1.5,1.2064580917358398,17.031999588012695,0.049328513,0,149.39999389648438,-86.910991,40.4279945,0.007782751,-0.00187874,1.8909078055215115E-4,-0.021539779,0.013176213,5.856423776651037E-4,-111.6005959,31.68010534286499,-58.960037,1.4529864471044066E-4,4.299655635795981E-5,-2.52E-05,-70.62043106,33.90001731872559,-10.71904171,-133.25,Classroom
198,-0.166423403,0.004879747,-0.013778164,0.9859460378156125,0.005038424,0.028797244689273603,0.3343662547255025,9.911074314302612,-0.284162209,-0.050391567,9.911074314302612,-0.284162209,-0.050391567,0,1.5,1.2064580917358398,17.031999588012695,0.049328513,0,149.39999389648438,-86.910991,40.4279945,-0.002125833,0.001318495,-6.18E-04,-0.021539778,0.012974573832764787,7.398368274223384E-4,-111.5416701,31.671199340820312,-58.89940289,1.452986221055238E-4,-1.59E-04,1.289895583097868E-4,-70.56174889,33.891233367919924,-10.6591398,-133.6666667,Classroom
199,-0.166344803,0.004857177,-0.013784494,0.9859593241260602,0.004994088,0.02880182,0.3342074333475186,9.909006785420539,-0.286674093,-0.049439085,9.909006785420539,-0.286674093,-0.049439085,0,1.5,1.2064580917358398,17.031999588012695,0.049328513,0,149.39999389648438,-86.910991,40.4279945,-7.93E-04,-0.001082863,3.600446507334709E-5,-0.021685077,0.012863033773520818,6.6958255886745E-4,-111.6201163,31.68266736984253,-58.86463287,0,-2.70E-04,5.8735281457372294E-5,-70.64007278,33.902335205078124,-10.62412576,-135.75,Classroom
200,-0.166177388,0.004784739,-0.013784558,0.985987911,0.004856052,0.028777023885869286,0.3338697749434166,9.908960296112356,-0.285733225,-0.049555241,9.908960296112356,-0.285733225,-0.049555241,0,1.5,1.2064580917358398,17.031999588012695,0.049328513,0,149.39999389648438,-86.910991,40.4279945,-1.74E-04,-3.75E-04,-0.001377651,-0.021705834,0.012879684965298014,8.110035034529504E-4,-111.6134059,31.680959358215333,-58.95442471,-2.08E-05,-2.54E-04,2.0015623547064447E-4,-70.63324036,33.90099338531494,-10.71440578,-139.1111111,Classroom
201,-0.166297243,0.004822883,-0.013862323,0.9859664150812093,0.004901933,0.028943690534644913,0.33411224577033405,9.910821692457477,-0.288160895,-0.050949118,9.910821692457477,-0.288160895,-0.050949118,0,1.5,1.2064580917358398,17.031999588012695,0.049328513,0,149.39999389648438,-86.910991,40.4279945,9.256659202205325E-4,-0.001117186,-0.002313824,-0.021622806,0.012784796088789274,6.330868277870553E-4,-111.6119417,31.652167320251465,-58.93832104,6.227084611840907E-5,-3.48E-04,2.2239549632536843E-5,-70.63202072,33.871957321166995,-10.69805778,-129.5,Classroom
202,-0.166132667,0.004754678,-0.01378179,0.9859955924228557,0.004799001,0.028761409566674417,0.3337798954792393,9.918093042466246,-0.285390563,-0.049067384,9.918093042466246,-0.285390563,-0.049067384,0,1.5,1,17.283000946044922,0.022573627531528473,0,149.39999389648438,-86.9109926,40.4279945,0.004569174,-1.03E-04,-0.001434017,-0.021812584,0.013022018243893258,5.263368315425095E-4,-111.6280465,31.66168333053589,-58.91331104,-1.28E-04,-1.11E-04,-8.45E-05,-70.64788116,33.88171745300293,-10.67316978,-92.55555556,Classroom
203,-0.166043285,0.004710722,-0.013788219,0.9860107163781101,0.004712737,0.028759143161542208,0.3335998012024222,9.916821146474302,-0.286926733,-0.047272767,9.916821146474302,-0.286926733,-0.047272767,0,1.5,1,17.283000946044922,0.022573627531528473,0,149.39999389648438,-86.9109926,40.4279945,-0.001113206,-0.001556315,-4.79E-04,-0.021527918,0.013128768255961246,0.001024504,-111.5775378,31.622033348083495,-58.9819968,1.5715978479067098E-4,-4.45E-06,4.1365622682949E-4,-70.59725098,33.842189407348634,-10.7413678,-77.625,Classroom
204,-0.166472793,0.004717436,-0.01418644,0.9859324745761538,0.00458077,0.029548797430922685,0.33447321439252314,9.911655215116648,-0.293862779,-0.046950517,9.911655215116648,-0.293862779,-0.046950517,0,1.5,1,17.283000946044922,0.022573627531528473,0,149.39999389648438,-86.9109926,40.4279945,-0.001897775,-0.001418426,-0.001829585,-0.02155164,0.012500129373364368,4.1958691045931244E-4,-111.6102338,31.679373340606688,-58.93612499,1.3343756905422337E-4,-6.33E-04,-1.91E-04,-70.63043465,33.899773292541504,-10.69622779,-90.66666667,Classroom
205,-0.166536533,0.004718512,-0.013898747,0.9859258926030502,0.004676994,0.028982121714399855,0.334600964,9.910717121605733,-0.287310049,-0.039240549,9.910717121605733,-0.287310049,-0.039240549,0,1.5,1,17.283000946044922,0.022573627531528473,0,149.39999389648438,-86.9109926,40.4279945,-0.001481538,1.6772833842675663E-4,0.007949275,-0.021741418,0.012915268,3.2469791470963544E-4,-111.497262,31.652777404785155,-58.9708947,-5.63E-05,-2.18E-04,-2.86E-04,-70.51721893,33.87268928527832,-10.73111973,-107.6666667,Classroom
206,-0.166538594,0.004761203,-0.013988504,0.9859241773781268,0.004731138,0.029173231927804577,0.334604268,9.914945287611879,-0.288520978,-0.052668233,9.914945287611879,-0.288520978,-0.052668233,0,1.5,1,17.283000946044922,0.022573627531528473,0,149.39999389648438,-86.9109926,40.4279945,0.001144085,0.001129551,-0.006150295,-0.021610945,0.013460879476325027,8.703090580523882E-4,-111.568876,31.67083333969116,-58.922827,7.413197489618098E-5,3.276632310940152E-4,2.5946177085590304E-4,-70.5888327,33.89074546813965,-10.68317378,-127.25,Classroom
207,-0.166734106,0.004889177,-0.013919486,0.9858914960935278,0.005000818,0.029080702208922903,0.334997057,9.924304499209505,-0.290550813,-0.051367281,9.924304499209505,-0.290550813,-0.051367281,0,1.5,1,17.283000946044922,0.022573627531528473,0,149.39999389648438,-86.9109926,40.4279945,0.007105855,-0.001922923,-0.002251577,-0.021741418,0.012962712797797421,8.703090840480426E-4,-111.5753423,31.653875427246092,-58.87646702,-5.63E-05,-1.71E-04,2.594617883747136E-4,-70.59542061,33.87390926361084,-10.63656979,-124.8888889,Classroom
208,-0.16658375,0.004857218,-0.01373027,0.9859197248633091,0.005005253,0.028696112478008635,0.33469200793367165,9.959955919,-0.283418807,-0.049648166,9.959955919,-0.283418807,-0.049648166,0,1.5,1,17.283000946044922,0.022573627531528473,0,149.39999389648438,-86.9109926,40.4279945,0.017117940462552585,0.002157393,7.227884175685736E-4,-0.02155586,0.013097975062779509,5.051236680278984E-4,-111.5628978,31.656437435150146,-58.92099686,1.292177050625189E-4,-3.52E-05,-1.06E-04,-70.58297699,33.87647136688233,-10.68085573,-127.875,Classroom
209,-0.166521478,0.004860386,-0.013584666,0.9859322569902661,0.005061806,0.028409666,0.33456492395076937,9.959029623605673,-0.282797371,-0.050043098,9.959029623605673,-0.282797371,-0.050043098,0,1.5,1,17.283000946044922,0.022573627531528473,0,149.39999389648438,-86.9109926,40.4279945,8.036604205381524E-4,2.76699806880025E-4,4.206075541024069E-4,-0.021705834,0.013057601638138294,6.805312750833923E-4,-111.5676559,31.688279418945314,-58.94124886,-2.08E-05,-7.56E-05,6.968399127764465E-5,-70.58785706,33.90794746398926,-10.70086373,-129,Classroom
210,-0.166392507,0.00479211,-0.013599313,0.9859541648799933,0.004925963,0.028415174,0.3343051787718986,9.956349345086847,-0.283171976,-0.048138132,9.956349345086847,-0.283171976,-0.048138132,0,1.5,1,17.283000946044922,0.022573627531528473,0,149.39999389648438,-86.9109926,40.4279945,-6.37E-04,-7.48E-05,9.678268750894416E-4,-0.021693973,0.012962712779713488,7.042534834732419E-4,-111.547892,31.684985332489013,-58.94490871,-8.90E-06,-1.71E-04,9.340621323044439E-5,-70.56809273,33.904653244018554,-10.70440178,-132.5,Classroom
211,-0.16629257,0.004766462,-0.013530638,0.9859720937256674,0.004901083,0.028270688070689592,0.3341028085611399,9.959590032,-0.28088079,-0.04864922,9.959590032,-0.28088079,-0.04864922,0,1.5,1,17.283000946044922,0.022573627531528473,0,149.39999389648438,-86.9109926,40.4279945,0.001316598,8.450688667667722E-4,2.1489785568228046E-4,-0.021670251,0.013223657,6.805312756485153E-4,-111.5610678,31.677177352905275,-58.90586899,1.482639091035116E-5,9.044098783085502E-5,6.968400088473431E-5,-70.58126869,33.89745540618897,-10.66658179,-133.2222222,Classroom
212,-0.165957538,0.004729192,-0.013546639,0.9860283500939897,0.004831856,0.02828841,0.33342424932035425,9.954708525278036,-0.28589294,-0.046715215,9.954708525278036,-0.28589294,-0.046715215,0,1.5,1,17.106000900268555,0.031826872,0,149.39999389648438,-86.9109912,40.4279917,-0.003312102,-0.004073476,0.001430855,-0.021634668,0.012927129,7.279757664593172E-4,-111.5899821,31.64069938659668,-58.8553611,5.040977498317517E-5,-2.06E-04,1.1712843800885874E-4,-70.61006035,33.860855178833006,-10.61582983,-135.25,Classroom
213,-0.166031574,0.004813728,-0.013748281,0.9860127753424413,0.00492955,0.028714452843064245,0.3335730187522555,9.911080076144291,-0.285091014,-0.051163841,9.911080076144291,-0.285091014,-0.051163841,0,1.5,1,17.106000900268555,0.031826872,0,149.39999389648438,-86.9109912,40.4279917,-0.021502365,3.586752900799501E-4,-0.002717769,-0.021575362,0.013188073791346504,4.3144794994766275E-4,-111.6005959,31.68815737,-58.91294495,1.0971532845236722E-4,5.4857622972210344E-5,-1.79E-04,-70.62079674,33.90806930541992,-10.67329176,-138.2222222,Classroom
214,-0.166145413,0.00484454,-0.013958187,0.9859905595918304,0.004917272,0.029139212323623955,0.3338040570610935,9.899110257046894,-0.289618659,-0.048858303,9.899110257046894,-0.289618659,-0.048858303,0,1.5,1,17.106000900268555,0.031826872,0,149.39999389648438,-86.9109912,40.4279917,-0.007710059,-8.99E-04,5.654391733188074E-4,-0.021610945,0.013022018316228992,6.449479305691728E-4,-111.520076,31.64960542678833,-58.9246566,7.413195342150997E-5,-1.11E-04,3.4100655805391887E-5,-70.54015427,33.86939529418945,-10.68512577,-143.6666667,Classroom
215,-0.16608434,0.004805646,-0.013953564,0.9860011113500132,0.004843877,0.029116863,0.33368120928412504,9.90099206,-0.288555827,-0.048021976,9.90099206,-0.288555827,-0.048021976,0,1.5,1,17.106000900268555,0.031826872,0,149.39999389648438,-86.9109912,40.4279917,-1.30E-04,-2.79E-05,-4.96E-05,-0.021622806,0.013033879423532093,7.042535015571754E-4,-111.5861994,31.674859352111817,-58.94625107,6.227084272767155E-5,-9.93E-05,9.340622735851742E-5,-70.60627846,33.89477135,-10.70671978,-137,Classroom
216,-0.166123007,0.004826722,-0.013981382,0.9859940970985634,0.004875073,0.029178921,0.3337592,9.904476749086843,-0.28978999,-0.04846337,9.904476749086843,-0.28978999,-0.04846337,0,1.5,1,17.106000900268555,0.031826872,0,149.39999389648438,-86.9109912,40.4279917,0.00151924,-6.14E-04,-1.97E-04,-0.021765139,0.013140629488721635,5.381979450619626E-4,-111.6313397,31.659853401184083,-58.90574707,-8.01E-05,7.4131988459131095E-6,-7.26E-05,-70.65093079,33.88013142,-10.6654838,-140.8888889,Classroom
217,-0.16612269,0.004830311,-0.013972657,0.9859942581791145,0.004885064,0.029162904086451117,0.3337584129319741,9.911027862030325,-0.287812427,-0.048625989,9.911027862030325,-0.287812427,-0.048625989,0,1.5,1,17.106000900268555,0.031826872,0,149.39999389648438,-86.9109912,40.4279917,0.004716992,0.001378338,-1.65E-04,-0.021743812,0.013168457,6.225943109781768E-4,-111.5741222,31.695599479675295,-58.90989487,-5.87E-05,3.5241198090191647E-5,1.1747039164989614E-5,-70.59407845,33.915876922607424,-10.66999778,-133.375,Classroom
218,-0.165989868,0.004804791,-0.013760873,0.9860197242023876,0.004908939,0.028736038,0.3334886732610684,9.951508522033691,-0.283520445,-0.048486601,9.951508522033691,-0.283520445,-0.048486601,0,1.5,1,17.106000900268555,0.031826872,0,149.39999389648438,-86.9109912,40.4279917,0.020077455391004247,0.002084441,3.23992403386866E-4,-0.021610945,0.013081323916038263,5.263368292820179E-4,-111.5515524,31.776729373931886,-58.93880878,7.41319489005266E-5,-5.19E-05,-8.45E-05,-70.57114281,33.99688549041748,-10.69842378,-121.8888889,Classroom
219,-0.165793681,0.004747284,-0.013570351,0.986055639,0.004864372,0.028340188840639245,0.33309138139474737,9.962795905696536,-0.281493516,-0.047952282,9.962795905696536,-0.281493516,-0.047952282,0,1.5,1,17.106000900268555,0.031826872,0,149.39999389648438,-86.9109912,40.4279917,0.00665861,8.262488448504106E-4,5.36127070200096E-4,-0.021599084,0.013188073863682238,7.635590651985801E-4,-111.5389862,31.692427291870118,-58.91184685,8.599309350174029E-5,5.485765744470856E-5,1.5271178704406163E-4,-70.55906464,33.911973266601564,-10.67170579,-134.75,Classroom
220,-0.165877737,0.004799686,-0.013546415,0.9860415967922767,0.004973294,0.028310766,0.33326036663888725,9.958565008293078,-0.281987181,-0.048161364,9.958565008293078,-0.281987181,-0.048161364,0,1.5,1,17.106000900268555,0.031826872,0,149.39999389648438,-86.9109912,40.4279917,-6.68E-04,1.7871960852910014E-4,0.001426771,-0.021693973,0.013496462771108428,3.6028125752848617E-4,-111.63012,31.66412333,-58.91343296,-8.90E-06,3.6324656374065335E-4,-2.51E-04,-70.65032043,33.88415744781494,-10.67341375,-131,Classroom
221,-0.165973626,0.004828705,-0.01360372,0.9860245319246088,0.00500877,0.028433913,0.333454362,9.955350366610926,-0.283052917,-0.04918354,9.955350366610926,-0.283052917,-0.04918354,0,1.5,1,17.106000900268555,0.031826872,0,149.39999389648438,-86.9109912,40.4279917,-0.001429252,2.680669710474107E-4,7.452461687685217E-4,-0.021575362,0.013199935034279105,5.263368264564033E-4,-111.6188962,31.663757343292236,-58.98407097,1.0971528776351688E-4,6.671876248731776E-5,-8.45E-05,-70.63897461,33.88391326904297,-10.74417377,-130.125,Classroom
222,-0.165980757,0.004826677,-0.01363689,0.9860228815125031,0.00499355,0.028498702004407215,0.33346902803309914,9.944228805028475,-0.283986634,-0.049052864,9.944228805028475,-0.283986634,-0.049052864,0,1.5,1,16.981000900268555,0.058458663523197174,0,149.39999389648438,-86.9109898,40.427997,-0.006748329,-5.58E-05,5.4306681584386E-4,-0.021717695,0.013223657266969242,4.907534955051339E-4,-111.581198,31.685839309692383,-58.91074909,-3.26E-05,9.044098613548627E-5,-1.20E-04,-70.60127663,33.90587364196777,-10.67085178,-131.7777778,Classroom
223,-0.166102011,0.004865617,-0.013822939,0.9859996698435071,0.005005054,0.028879226845444986,0.3337147863744532,9.908704711,-0.289101763,-0.050228948,9.908704711,-0.289101763,-0.050228948,0,1.5,1,16.981000900268555,0.058458663523197174,0,149.39999389648438,-86.9109898,40.427997,-0.018128395,-0.002032232,-2.07E-04,-0.021729556,0.013330407196529281,4.433090391668301E-4,-111.5436217,31.653753414154053,-58.84877281,-4.45E-05,1.9719100328958005E-4,-1.68E-04,-70.56370087,33.87403118133545,-10.60924183,-135.3333333,Classroom
