seconds_elapsed,microphone_dBFS,orientation_qz,orientation_qy,orientation_qx,orientation_qw,orientation_roll,orientation_pitch,orientation_yaw,accelerometerUncalibrated_z,accelerometerUncalibrated_y,accelerometerUncalibrated_x,gyroscope_z,gyroscope_y,gyroscope_x,magnetometerUncalibrated_z,magnetometerUncalibrated_y,magnetometerUncalibrated_x,location_bearingAccuracy,location_speedAccuracy,location_verticalAccuracy,location_horizontalAccuracy,location_speed,location_bearing,location_altitude,location_longitude,location_latitude,magnetometer_z,magnetometer_y,magnetometer_x,gyroscopeUncalibrated_z,gyroscopeUncalibrated_y,gyroscopeUncalibrated_x,accelerometer_z,accelerometer_y,accelerometer_x,totalAcceleration_z,totalAcceleration_y,totalAcceleration_x,class
0,-90.63636364,-0.981096964,-0.121311716,0.026302880312247975,0.14845746937321452,0.016087021065376152,-0.248393194,2.8432441106656703,9.627887460920546,2.4353284703360663,-0.152708612,-8.65E-04,-6.25E-04,4.217754827723617E-4,-46.80249642,-10.18139445,-71.77325769,45,1.5,1,37.86199951171875,0,0,160.79998779296875,-86.9157837,40.3841411,43.27705974578858,-6.707254863,-5.866674888,-0.022440599,0.012530406,8.278587759521447E-4,-0.005837045,-0.004894158,0.001358222,9.628419232368469,2.439363032579422,-0.154037958,Drive
1,-33.75,-0.981460371,-0.121337098,0.026043303,0.14606082309218285,0.016172615,-0.248327402,2.8481399364841793,9.596540108467769,2.435062933894037,-0.154560662,-1.26E-04,9.577847447571824E-4,3.1728472434056613E-4,-46.69818321,-10.30228986,-71.67548653,45,1.5,1,37.86199951171875,0,0,160.79998779296875,-86.9157837,40.3841411,43.36184909820557,-6.822971835,-5.735341897,-0.02165839,0.014243712856714587,7.754201696760664E-4,-0.018751987,-0.003224273,9.56987003678257E-4,9.596540108467769,2.435062933894037,-0.154560662,Drive
2,-30.11111111,-0.981855779,-0.121652666,0.026076597,0.14310740542064593,0.01691012,-0.248916802,2.8542426141720374,9.580321765640408,2.433666159805742,-0.157975661,4.4330905103441147E-4,7.442847432261242E-4,6.493958655871379E-4,-46.74259094,-10.28642983,-71.6257106,45,0.35468295216560364,1.0203279256820679,25.898000717163086,1.9411813020706177,12.118465423583984,160.79998779296875,-86.9156287,40.3846911,43.317319259643554,-6.806379833,-5.68556591,-0.021089056,0.014030213,0.001107531,-0.003502022,-0.002680563,0.004102286,9.580321765640408,2.433666159805742,-0.157975661,Drive
3,-28.75,-0.981975341,-0.121600859,0.02597507,0.1423478401401668,0.016916030204122506,-0.248771091,2.8557918326368608,9.616176281160522,2.4394972023454686,-0.159323076,2.653923753685164E-4,7.917291950434446E-4,2.461180680892566E-4,-46.72514511,-10.26251785,-71.68976036,45,0.2545584440231323,1.0303280353546143,20.68400001525879,2.477083683013916,13.919673919677734,160.79998779296875,-86.9156195,40.384717,43.334399185180665,-6.78173584,-5.750103922,-0.021266973,0.014077657264051507,7.042535004269296E-4,0.015260659,2.9537978681545813E-4,0.003100771,9.616176281160522,2.4394972023454686,-0.159323076,Drive
4,-28.66666667,-0.982028818,-0.121405901,0.025983205372558056,0.14214373387179327,0.017042139237656177,-0.248380909,2.856226856268725,9.625014003,2.4400176199582906,-0.158225397,6.37534743590841E-5,0.001064535,1.0378472167926216E-4,-46.68049328,-10.27386384,-71.70696259,45,0.17691805958747864,1.040328025817871,18.19099998474121,1.6406495571136475,0.10400806367397308,160.79998779296875,-86.9156245,40.3847269,43.37978302001953,-6.793203864,-5.766329899,-0.021468612,0.014350462858610361,5.619201591030414E-4,0.005509867,2.8436855205054423E-4,0.005416829,9.625014003,2.4400176199582906,-0.158225397,Drive
5,-27.66666667,-0.982073872,-0.121383437,0.025994059928123234,0.1418494255218691,0.017146658206593644,-0.248334077,2.8568395943317597,9.626560729684181,2.442778626691948,-0.159299844,1.6309027062747086E-5,0.001325479,-8.60E-05,-46.71245716,-10.23884984,-71.71513695,45,0.3324154019355774,1.050328016281128,11.019000053405762,1.5561506748199463,348.1004943847656,160.79998779296875,-86.9156315,40.3847397,43.34781909942627,-6.75818984,-5.775113878,-0.021516056,0.014611407264488415,3.721423761340455E-4,0.002704176,0.001727148,0.00671262,9.626560729684181,2.442778626691948,-0.159299844,Drive
6,-27.875,-0.982108934,-0.12139834,0.026058636605739594,0.1415818430555677,0.017342280704998277,-0.248377572,2.8574082828262477,9.625422413,2.440963677989626,-0.159416001,9.933681039645979E-5,0.001183146,8.895828216833975E-6,-46.6493829,-10.28020784,-71.75405449,45,0.16278821229934692,1.0603280067443848,10.470999717712402,0.7119705080986023,335.67364501953125,160.79998779296875,-86.9156347,40.3847391,43.410527267456054,-6.800279827,-5.813787885,-0.021433028,0.014469073976851205,4.6703126507549033E-4,-0.002042622,-7.25E-04,0.006703771,9.625422413,2.440963677989626,-0.159416001,Drive
7,-28.11111111,-0.982082429,-0.121374034,0.026027473015258613,0.14179205402587225,0.017231913,-0.248323861,2.8569670556818396,9.622773976001925,2.4397817815391765,-0.160229096,1.6309027062747086E-5,0.001100118,-1.48E-05,-46.71245701,-10.2952138,-71.7699147,45,0.16278821229934692,1.0703279972076416,9.079000473022461,0.6133727431297302,321.4833984,160.79998779296875,-86.91564,40.3847423,43.34794124603272,-6.815163841,-5.829891906,-0.021516056,0.014386046162435731,4.4330904877391977E-4,-2.22E-04,4.8379296237982593E-4,0.005729195,9.622773976001925,2.4397817815391765,-0.160229096,Drive
8,-28,-0.982075974,-0.121462844,0.026157608058733437,0.1417368222028017,0.017484098941517565,-0.248537309,2.8571087557535906,9.624051751442327,2.445215007633839,-0.161832054,2.1144712697535468E-4,0.00148013,1.1747062559991788E-4,-46.76552715,-10.21444984,-71.8828862,45,0.2475883662700653,1.0803279876708984,8.286999702453613,0.7037097811698914,345.27520751953125,160.79998779296875,-86.9156404,40.3847497,43.29462723,-6.734521856,-5.94274189,-0.021320918,0.014766057980103562,5.756060597307694E-4,-5.50E-05,0.001520968,0.006549503,9.624051751442327,2.445215007633839,-0.161832054,Drive
9,-28,-0.98201835,-0.121466039,0.026218676,0.14212145591245115,0.017507535,-0.248568,2.8563280475949777,9.607092894396736,2.438614421677821,-0.161344198,-5.49E-05,0.001005229,-8.60E-05,-46.70257507,-10.23616585,-71.85031273,45,0.16970562934875488,1.0903279781341553,7.301000118255615,0.3588055372238159,356.38690185546875,160.79998779296875,-86.9156394,40.3847509,43.35672531,-6.756481857,-5.910533857,-0.021587223,0.014291157,3.72142379524783E-4,-0.010904377,-0.002872736,0.007057728,9.607092894396736,2.438614421677821,-0.161344198,Drive
10,-27.625,-0.982025493,-0.121610087,0.026260706460446988,0.1419410990569198,0.017597450431689476,-0.248864247,2.8567037744429506,9.573128755810192,2.4362971018818977,-0.162668382,-6.67E-05,0.001052674,-7.41E-05,-46.72929317,-10.2872838,-71.7928511,45,0.24041630327701569,1.100327968597412,6.639999866485596,0.4421968460083008,294.9438477,160.79998779296875,-86.9156471,40.3847515,43.33098323822021,-6.807477808,-5.852461896,-0.021599084,0.014338601706097426,3.840034840022693E-4,-0.015544391,-7.76E-04,0.006081015,9.573128755810192,2.4362971018818977,-0.162668382,Drive
11,-28,-0.981997209,-0.121709428,0.026289983,0.14204614399706275,0.017600684,-0.24907273,2.856488318119234,9.570108673,2.435664052,-0.162273449,-5.49E-05,9.22201420587388E-4,6.82013884675011E-5,-46.7572308,-10.24165581,-71.83091469,45,0.16970562934875488,1.110327959060669,6.125,0.2685548961162567,241.0166473388672,160.79998779296875,-86.9156486,40.3847484,43.30304553985596,-6.761727858,-5.890891876,-0.021587223,0.014208129507679385,5.263368253261574E-4,-0.003148125,3.893977230034986E-4,0.006236153,9.570108673,2.435664052,-0.162273449,Drive
12,-27.625,-0.981959403,-0.121662834,0.026303814000730376,0.14234456463346204,0.017565018886212005,-0.248989071,2.8558768693683216,9.589898840894977,2.4349235446707715,-0.16229668,1.7050348077584239E-4,0.001206868,6.820139072799277E-5,-46.71172493,-10.18712182,-71.86678261,45,0.1702938675880432,1.0380480289459229,6.072999954223633,0.12814034521579742,260.11517333984375,160.79998779296875,-86.9156492,40.3847489,43.34818546295166,-6.706339841,-5.92651588,-0.021361862,0.014492796191457406,5.263368270215262E-4,0.011724740556142862,-7.53E-04,0.005958448,9.589898840894977,2.4349235446707715,-0.16229668,Drive
13,-27.22222222,-0.981941547,-0.121454911,0.026288768457411564,0.1426477011257005,0.017516826668265952,-0.248575295,2.8552573329036677,9.628948367558992,2.4439318432257724,-0.161791623,2.817013888683134E-5,9.222014149361589E-4,3.261805412549417E-5,-46.67122097,-10.25068383,-71.81261482,45,0.16278821229934692,1.0480480194091797,5.848999977111816,0.1830984503030777,271.4891052246094,160.79998779296875,-86.9156518,40.3847491,43.38905536651611,-6.769413853,-5.872835889,-0.021504195,0.014208129498637418,4.907534938097651E-4,0.018467968,0.004269246,0.005986063,9.628948367558992,2.4439318432257724,-0.161791623,Drive
14,-27.5,-0.981919483,-0.121349536,0.026246062,0.1428969846767129,0.017396701,-0.248357211,2.8547367540378015,9.621101342358635,2.440682013057968,-0.159601852,1.3492014586871255E-4,0.00133734,1.1564583802432979E-4,-46.70806519,-10.25153786,-71.81773827,45,0.16278821229934692,1.0580480098724365,5.666999816894531,0.23369747400283813,294.50555419921875,160.79998779296875,-86.9156546,40.3847505,43.351479110717776,-6.770755844,-5.877227864,-0.021397445,0.014623268,5.737812743178632E-4,-0.002983741,-0.001407987,0.008569111,9.621101342358635,2.440682013057968,-0.159601852,Drive
15,-27.22222222,-0.981911946,-0.121494638,0.026260481098467865,0.1428227537465327,0.017402633,-0.248649532,2.8548859369407578,9.585371674843206,2.436041557,-0.162436069,-1.02E-04,8.628958558157375E-4,-1.22E-04,-46.70794289,-10.26385988,-71.74392799,45,0.15620499849319458,1.0680480003356934,5.518000126,0.15900030732154846,260.2441101074219,160.79998779296875,-86.915656,40.3847495,43.35221138000488,-6.783931861,-5.804637909,-0.021634667,0.014148823962121913,3.365590417920386E-4,-0.018250206,-0.001133289,0.003926057,9.585371674843206,2.436041557,-0.162436069,Drive
16,-28,-0.981945765,-0.121550993,0.026321834,0.14253076867571154,0.017585982,-0.248774427,2.855502198043379,9.580469891,2.435669859636177,-0.162552225,-1.93E-05,0.00123059,-8.60E-05,-46.74332302,-10.21908581,-71.77357407,45,0.14866068959236145,1.0780479907989502,5.307000160217285,0.19295459985733032,252.7948760986328,160.79998779296875,-86.9156584,40.3847488,43.316343231201174,-6.738425851,-5.833917909,-0.021551639,0.014516518,3.7214237500379966E-4,-0.00348568,1.3055153263425364E-4,0.006280199,9.580469891,2.435669859636177,-0.162552225,Drive
17,-27.66666667,-0.98194488,-0.121519653,0.026318450467389762,0.14256417968319457,0.017579645605631244,-0.248711523,2.855433936257964,9.593247080312192,2.4338607301989805,-0.161228042,-1.97E-04,0.001135701,-2.97E-06,-46.69891499,-10.21688984,-71.78577477,45,0.1702938675880432,1.066890001296997,5.084000110626221,0.38654187321662903,218.3380126953125,160.89999389648438,-86.9156616,40.3847446,43.36099517822266,-6.737449837,-5.845629888,-0.021729556,0.014421629565722734,4.55170153816529E-4,0.008704972,7.130405277881807E-4,0.007471551,9.593247080312192,2.4338607301989805,-0.161228042,Drive
18,-27.75,-0.981967999,-0.121308409,0.026326692018371362,0.14258330086102852,0.017653095840404812,-0.248292763,2.8554079234600067,9.635597683,2.442197845977487,-0.162807769,-1.06E-04,0.001268683,7.048236483779665E-5,-46.77723915,-10.20493383,-71.71599052,45,0.15620499849319458,1.0768901109695435,4.651000022888184,0.19110867381095886,219.6748504638672,160.89999389648438,-86.9156622,40.3847442,43.28279323577881,-6.724273853,-5.776333904,-0.021638089,0.014554610789323656,5.286178051252277E-4,0.020091185,0.003173952,0.007120395,9.635597683,2.442197845977487,-0.162807769,Drive
19,-35.44444444,-0.981919213,-0.12116468,0.026209892524243557,0.14306189539363084,0.017335036,-0.247980841,2.854396732108107,9.631384108830424,2.439990876947792,-0.159982264,-1.62E-04,4.833402684030747E-4,-1.45E-04,-46.762355,-10.23323789,-71.82091087,45,0.2545584440231323,1.0868901014328003,4.427000045776367,0.10727148503065109,231.5146942138672,160.89999389648438,-86.9156628,40.3847441,43.297677192687985,-6.753675847,-5.880765896,-0.021693973,0.013769268302373516,3.1283679101796986E-4,-0.002098704,5.90074409558935E-4,0.007015069,9.631384108830424,2.439990876947792,-0.159982264,Drive
20,-45.75,-0.981873362,-0.121336455,0.026161940171591288,0.14323996369121145,0.01714155,-0.248312871,2.8540070311537065,9.591321787787873,2.434206273,-0.159532156,-3.11E-05,0.001111979,-8.60E-05,-46.64596722,-10.28215985,-71.87776291,0,0.24041630327701569,1.0968900918960571,4.373000144958496,0.084137358,0,160.89999389648438,-86.9156636,40.3847439,43.41430904388428,-6.801011848,-5.937861872,-0.021563501,0.014397907278780799,3.7214236539670996E-4,-0.018723451,-0.002647365,0.005212922,9.591321787787873,2.434206273,-0.159532156,Drive
21,-43.11111111,-0.981827276,-0.121444449,0.026133180170961955,0.1434694166901042,0.016992268396668064,-0.248523984,2.853519168872278,9.583324386078177,2.432699152566854,-0.155559607,-1.02E-04,0.001040813,6.820138055578019E-5,-46.69440102,-10.31619782,-71.94620438,0,0.14866068959236145,1.106890082359314,4.172999858856201,0.054003108,0,160.89999389648438,-86.9156639,40.3847437,43.36575328826904,-6.836635828,-6.006425881,-0.021634667,0.014326740553584492,5.263368247610345E-4,-0.006283056,-0.00111944,0.007405482,9.583324386078177,2.432699152566854,-0.155559607,Drive
22,-46,-0.981879343,-0.121335049,0.026313389678603236,0.1431720214850694,0.017466293611717455,-0.248352513,2.854185113629091,9.598192437181195,2.431862833430466,-0.161553279,1.1119791430882314E-4,0.001894813,-9.79E-05,-46.751619,-10.25861385,-71.91082428,45,0.31827661395072937,1.1101435422897339,4.111999988555908,0.14396293461322784,196.89112854003906,160.79998779296875,-86.9156644,40.3847418,43.30792526245117,-6.778197851,-5.971045871,-0.021421167,0.015180740613960525,3.6028124848651945E-4,0.009099914,-9.72E-05,0.005947419,9.598192437181195,2.431862833430466,-0.161553279,Drive
23,-45.11111111,-0.981926539,-0.121065017,0.026456858,0.14305069377121415,0.017867491,-0.247853121,2.8544864214739754,9.637507374,2.439039785128373,-0.164046399,-1.73E-04,0.001313618,-9.79E-05,-46.76308723,-10.31265985,-71.95608665,0,0.1984943300485611,1.1201435327529907,4.058000087738037,0.074033871,0,160.79998779296875,-86.9156647,40.3847416,43.297067146301266,-6.832731848,-6.016063881,-0.021705834,0.014599546211437114,3.6028125752848617E-4,0.019792621575512932,0.00522392,0.007897799,9.637507374,2.439039785128373,-0.164046399,Drive
24,-36.125,-0.981922369,-0.12098412,0.026474791967753066,0.1431442263346274,0.017903361324835748,-0.247698535,2.8543017072585024,9.629670800514592,2.4344879701299575,-0.166664163,-1.93E-05,0.001301757,6.820133421570063E-5,-46.8872831,-10.43685581,-71.8628788,0,0.14866068959236145,1.1301435232162476,4.0320000648498535,0.033629998564720154,0,160.79998779296875,-86.9156649,40.3847417,43.17262722015381,-6.956317844,-5.922367883,-0.02155164,0.014587684995630413,5.263368100678385E-4,-0.00124973,-0.001458163,0.006804684,9.629670800514592,2.4344879701299575,-0.166664163,Drive
25,-32.88888889,-0.981929651,-0.121135067,0.026512481,0.14295955537592323,0.017983171,-0.248007185,2.8546849315606275,9.595030072,2.431978977999641,-0.165920761,-7.86E-05,0.001384785,1.1564577812130011E-4,-46.76979725,-10.17894779,-71.95681862,0,0.16970562934875488,1.1401435136795044,3.9820001125335693,0.03629823,0,160.79998779296875,-86.9156654,40.3847416,43.290113105773926,-6.698409896,-6.017283897,-0.021610945,0.014670712864297686,5.737812799690924E-4,-0.017696779,-0.002592334,0.005571696,9.595030072,2.431978977999641,-0.165920761,Drive
26,-32.77777778,-0.981853736,-0.121181403,0.026655096434129093,0.14341277578502026,0.018141912,-0.248149163,2.853780052036915,9.586237019,2.414372573778467,-0.167099749,3.721423806550289E-4,0.001005229,-5.04E-05,-46.59326298,-9.824415827,-72.67198288,45,0.20518285036087036,1.1501435041427612,3.9690001010894775,0.41911089420318604,251.75027465820312,160.79998779296875,-86.9156729,40.3847397,43.466159400939944,-6.344487872,-6.733057895,-0.021160223,0.014291157,4.077257342112151E-4,-0.008418907,-0.015262444,0.00601311,9.586237019,2.414372573778467,-0.167099749,Drive
27,-31.25,-0.981626517,-0.117205496,0.026276106,0.14823308372153685,0.017346846,-0.240198805,2.8439369660157423,9.636808617601117,2.266284726198437,-0.159784798,-5.87E-05,4.2289419350429223E-4,-0.001762059,-48.90748112,-10.48333778,-73.12472473,45,0.1414213627576828,1.137308120727539,3.930999994277954,0.23984366655349731,252.8779754638672,160.5,-86.9156743,40.3847394,41.152673,-7.003409848,-7.184945879,-0.021591101,0.013708822267989699,-0.001303924,0.031586601183964655,-0.08690458,0.00802666,9.636808617601117,2.266284726198437,-0.159784798,Drive
28,-26.77777778,-0.980705451,-0.102832872,0.024005311658804856,0.16434875463397758,0.013635149840446352,-0.21114663,2.8109733063040427,9.733041318874914,1.9860195685358881,-0.097704989,-0.008891386,-0.004949049,-0.006538438,-49.39914116,-10.38781189,-73.05628235,45,0.17691805958747864,1.147308111190796,3.9040000438690186,0.34790122509002686,250.72003173828125,160.5,-86.915679,40.3847381,40.66089107513428,-6.908005843,-7.115649905,-0.030423752,0.008336879,-0.006080302,0.037233427,-0.092330761,0.034438233,9.733041318874914,1.9860195685358881,-0.097704989,Drive
29,-27.75,-0.981225629,-0.102314503,0.021488114667025583,0.16164272083240805,0.009348664,-0.209268709,2.816045032,9.692520114,2.1845163963373424,-0.09730425,-0.058933417,-0.009076716,-0.009788382,-48.96506504,-10.56422376,-73.62773033,45,0.2280350923538208,1.1573081016540527,3.9000000953674316,0.2719467878341675,249.17909240722656,160.5,-86.9156814,40.3847374,41.09508911132812,-7.08527185,-7.687585812,-0.080465783,0.004209212,-0.009330247,-0.023067317,0.12100920052204317,-0.006468707,9.692520114,2.1845163963373424,-0.09730425,Drive
30,-33.55555556,-0.987890863,-0.101191204,0.019970369100281337,0.11445004601501724,0.01654163,-0.205970663,2.912605556469519,9.701016990883836,2.031843279171916,-0.18640495,-0.119436949,-0.02138855,-0.012943438,-49.58250706,-12.31467979,-72.92037453,45,0.32802438735961914,1.1673080921173096,3.9000000953674316,0.17167910933494568,247.38931274414062,160.5,-86.9156825,40.384737,40.47764717102051,-8.834385815,-6.980473862,-0.140969313,-0.008102622,-0.012485303,0.002709009,0.005232199,-0.025924827,9.701016990883836,2.031843279171916,-0.18640495,Drive
31,-33.125,-0.665321592,-0.070192362,0.011317424259139496,0.031275672360845545,0.027603884,-0.217801587,1.865565966633917,9.624243384,2.311089155743423,-0.327523407,-0.151307756,-0.030924884,0.003840035,-48.93615108,-15.4211657,-72.72627251,45,0.31144821643829346,1.1773080825805664,3.9000000953674316,0.1286965161561966,249.2374725341797,160.5,-86.9156836,40.3847367,41.12363712310791,-11.94001779,-6.786737881,-0.172840121,-0.017638956,0.00429817,-0.060818756,0.16688591068230788,-0.060282329,9.624243384,2.311089155743423,-0.327523407,Drive
32,-23.22222222,0.9932441393148552,0.10634843194947659,-0.012315179,0.040587329,0.033650166,-0.211934282,-3.056348354,9.717537467296307,1.884925907621017,-0.27983946,-0.149481145,-0.025694133,0.001788063,-48.47316105,-19.20841173,-71.45222672,45,0.3889729976654053,1.0917807817459106,3.9000000953674316,0.735586941,237.40037536621094,161,-86.9156931,40.3847319,41.58662727355957,-15.72884968,-5.512569919,-0.17101351,-0.012408206,0.002246198,0.045974343,-0.196681913,0.044484045,9.717537467296307,1.884925907621017,-0.27983946,Drive
33,-31.125,0.987399427,0.094082575,-0.005949408,0.12341770074031885,0.035573514,-0.185450677,-2.88959202,9.754948430848353,1.8447500999691417,-0.409968345,-0.199072453,-0.036191217,9.459236035467062E-4,-48.38605293,-23.20500946,-69.28294441,45,0.38209945,1.101780891418457,3.9000000953674316,0.6194970607757568,240.12118530273438,161,-86.9156984,40.38473,41.673735275268555,-19.72532568,-3.34279995,-0.220604818,-0.022905289,0.001404059,0.011203589948635656,0.012280761616901286,-0.058056098,9.754948430848353,1.8447500999691417,-0.409968345,Drive
34,-28.66666667,0.9706159251407512,0.10525812150783909,-0.002903986,0.21538621302947258,0.052264388,-0.204530271,-2.699464291,9.706244015,2.2086624138563584,-0.568080485,-0.167308396,-0.034222273,0.001538979,-47.93794685,-26.05407557,-66.24233887,45,0.3201562166213989,1.1117808818817139,3.9000000953674316,0.47783389687538147,241.76695251464844,161,-86.9157007,40.3847294,42.12196342468262,-22.57524549,-0.30182799,-0.188840762,-0.020936345,0.001997115,-0.028078311,0.18674762503614703,-0.062112125,9.706244015,2.2086624138563584,-0.568080485,Drive
35,-37,0.9596567177078099,0.11185468899682888,0.00316256,0.25788085278376793,0.05290964,-0.218054754,-2.610759719,9.656436133,2.2166626881627205,-0.475831948,-0.082169335,-0.016833883,-4.06E-04,-47.86218517,-27.99863352,-63.62007092,45,0.3201562166213989,1.1217808723449707,3.9000000953674316,0.41020676493644714,245.38758850097656,161,-86.9157036,40.3847292,42.197603149414064,-24.51907152,2.3198299419879915,-0.103701701,-0.003547955,5.189234049520591E-5,-0.031977598,0.066508935,0.037597758,9.656436133,2.2166626881627205,-0.475831948,Drive
36,-20.77777778,0.9614712115630363,0.1164113675940384,0.00750018,0.2487476128108293,0.044620658,-0.22958411,-2.630135344,9.605669956762814,2.370328949493112,-0.352897782,-0.009875858,-0.002137965,7.917291690477902E-4,-47.24035103,-28.25044147,-62.84842075,45,0.23345234990119934,1.1317808628082275,3.9000000953674316,0.3325228989124298,246.05447387695312,161,-86.9157045,40.3847291,42.820047302246095,-24.77222153,3.091113941669464,-0.031408224,0.011147963,0.001249865,-0.034978543,0.10999935344584937,0.075667422,9.605669956762814,2.370328949493112,-0.352897782,Drive
37,-20.375,0.9684387817978859,0.13496892906438845,0.016659174,0.20824595469121748,0.024586329147076376,-0.271647292,-2.714725969,9.497792623575451,2.9612312710400923,-0.042228673,-0.040104472,-0.004604849,0.003735566,-47.14543499,-28.41660545,-62.61442474,45,0.17691805958747864,1.1615980863571167,3.9000000953674316,0.30757221579551697,240.2393035888672,161,-86.9157059,40.3847271,42.91447532653809,-24.93716555,3.3252319383621214,-0.061636838,0.008681079,0.004193701,-0.056045706,0.2962188193431267,0.19179203644251594,9.497792623575451,2.9612312710400923,-0.042228673,Drive
38,-18.55555556,0.9651636336613627,0.14631996470168956,0.037570206466519714,0.21280889704968164,-0.010713471,-0.303360315,-2.709201299,9.553989077077329,3.0176949153826076,0.45507189110644813,-0.228594761,-0.047411829,0.002179479,-46.92010109,-29.54656939,-60.57446281,45,0.21931712329387665,1.1715980768203735,3.9000000953674316,0.2802819311618805,237.1991424560547,161,-86.9157071,40.3847258,43.14017528533935,-26.06578745,5.365437915325165,-0.250127125,-0.034125901,0.002637615,0.031148346,0.036400936182262825,0.35284012078660204,9.553989077077329,3.0176949153826076,0.45507189110644813,Drive
39,-20.77777778,0.9398539465607949,0.14776807546036916,0.059157254,0.3004114458572517,-0.023604816,-0.318915618,-2.526641124,9.453124662,3.020752737823042,0.33313376101149805,-0.266645207,-0.046201995,0.011549757659046467,-47.55413483,-31.79039331,-55.78169296,45,0.33970576524734497,1.1815980672836304,3.9000000953674316,0.24955034255981445,237.1046600341797,161,-86.9157081,40.3847253,42.506141357421875,-28.30900148,10.158695802688598,-0.288177574,-0.032916068,0.012007892898677224,-0.079017088,-0.127527387,0.1081703290777299,9.453124662,3.020752737823042,0.33313376101149805,Drive
40,-21.25,0.9119448436116709,0.1407008904565885,0.058869986,0.3805930545029131,-3.65E-04,-0.306119372,-2.350947947,9.756548474135908,2.2159105788156825,-0.156207177,-0.102048558,-0.003608743,0.003021618,-48.01163513,-32.31108934,-52.45072697,45,0.45967379212379456,1.1915980577468872,3.9000000953674316,0.20929646492004395,239.2321319580078,161,-86.9157085,40.3847255,42.04839718,-28.83164942,13.489295701980591,-0.123580924,0.009677185,0.003479754,0.193618858,-0.806691181,-0.159677053,9.756548474135908,2.2159105788156825,-0.156207177,Drive
41,-25.66666667,0.898184976,0.13131297878848697,0.045643089646563946,0.4169898915638044,0.028581882673270494,-0.277483342,-2.268320711,9.694186960609214,2.2507226704393775,-0.51590592,-0.011299192,-0.004474604,0.008121896,-49.52931515,-34.40351124,-51.2792828,3.952585220336914,0.7375635504722595,1.201598048210144,3.9000000953674316,3.880626916885376,181.2097625732422,161,-86.9157321,40.3846649,40.53071716308594,-30.92333946,14.660617761611938,-0.032831557,0.008811324,0.008580032,0.045597882,-0.498574906,-0.239865749,9.694186960609214,2.2507226704393775,-0.51590592,Drive
42,-21.875,0.894799837,0.12573567864674967,0.037131356744511616,0.42675223570425536,0.042274461,-0.259619512,-2.246049307,9.673793691855211,2.3792192133573384,-0.491791202,0.019693893527395083,-0.001627938,-4.42E-04,-49.53931915,-34.32250343,-51.75142303,3.2647862434387207,0.7864477038383484,1.033918023109436,3.9000000953674316,4.310892105102539,177.21685791015625,160.5,-86.9157435,40.3846161,40.520591201782224,-30.84257542,14.18847773551941,-0.001838472,0.011657990444026598,1.6308974506315386E-5,0.066304392,-0.171104845,-0.076147084,9.673793691855211,2.3792192133573384,-0.491791202,Drive
43,-20.66666667,0.9026478112322612,0.11883923462004338,0.040354411,0.41152443093003577,0.025754038768919928,-0.250292127,-2.282850305,9.700874671195317,2.235259342540815,-0.51811289,0.056439618,-0.02587205,-0.00538791,-49.77990284,-34.47475933,-53.02132092,2.0131022930145264,0.9104943871498108,1.0439180135726929,3.9000000953674316,4.706769943237305,173.8426971435547,160.5,-86.9157544,40.3845669,40.27976341247559,-30.99568535,12.918335781097412,0.034907252,-0.012586122,-0.004929775,0.1591279437241045,-0.208147189,-0.273120221,9.700874671195317,2.235259342540815,-0.51811289,Drive
44,-19.625,0.9232199649208958,0.11682600824578294,0.025879539477015004,0.36421785915939553,0.03850383,-0.237317107,-2.385605317,9.581468748814851,2.020802604,-1.654143193,0.23739274034222352,0.051616593,-0.007558494,-50.07038506,-34.26430939,-55.86867901,1.8880668878555298,1.0207840204238892,1.0539180040359497,4.260000228881836,4.898982524871826,162.51632690429688,160.5,-86.9157529,40.384514,39.99001327514648,-30.78425934,10.071465768814086,0.21586037405486247,0.064902521,-0.007100358,-0.032604778,-0.306278788,-1.267708911,9.581468748814851,2.020802604,-1.654143193,Drive
45,-19.33333333,0.946899567,0.132802901,-0.044950786,0.2857847070520364,0.1660479067020046,-0.228609096,-2.536301657,9.752233255256726,1.9521425441630835,-2.125093675,0.367105858,0.071611463,-0.003158021,-49.86103306,-32.14431532,-60.99536282,1.7889909744262695,1.0594810247421265,1.0639179944992065,4.209000110626221,5.111126899719238,146.35064697265625,160.5,-86.9157391,40.3844639,40.19887725830078,-28.66463137,4.944537901878357,0.345573492,0.084888495,-0.002699886,0.13045031353107933,-0.328437507,-0.528958363,9.752233255256726,1.9521425441630835,-2.125093675,Drive
46,-19,0.9781742043865537,0.14279203941521135,-0.056530732,0.13409197178569812,0.15489850591108636,-0.267433976,-2.848300147,9.632278502566143,2.042529664572003,-1.605737902,0.2833901303775102,0.047352524,-2.40E-04,-49.95643688,-28.04328552,-66.22050076,1.8467988967895508,1.015135407447815,1.0739179849624634,4.209000110626221,4.893417835235596,123.88468933105469,160.5,-86.9157018,40.3844243,40.10371730804443,-24.5627475,-0.28047799,0.261857767,0.060632521,2.1794792863730233E-4,0.067543882,-0.593890489,-0.1108886,9.632278502566143,2.042529664572003,-1.605737902,Drive
47,-19.22222222,-6.05E-05,0.002183827,0.004262379,0.031739191432612085,0.14943886892153666,-0.273921839,-0.639965837,9.560900373366273,2.0102004229443744,-1.80341293,0.2716273298630348,0.062369560970602415,-0.017491376,-51.09860085,-21.93730745,-69.39786835,1.9222573041915894,1.0881175994873047,1.0839179754257202,4.260000228881836,4.7989702224731445,94.78759766,160.5,-86.9156504,40.3843974,38.96155326843262,-18.45701368,-3.458089919,0.2500949636674844,0.075651084,-0.017033241,0.04980786,-0.697432018,-0.366821751,9.560900373366273,2.0102004229443744,-1.80341293,Drive
48,-20.375,-0.978674096,-0.129762959,0.090681927,0.12560037017157935,0.15149864308463717,-0.281067666,2.907762599222868,9.669634448671804,2.145827603571623,-1.895217179,0.2554927954395998,0.083527432,-0.020060105,-51.95699299,-14.91828165,-71.04425858,2.0149853229522705,1.1241440773010254,1.093917965888977,4.260000228881836,5.300804138183594,75.76102447509766,160.5,-86.9155809,40.3843796,38.10316123962402,-11.43884178,-5.103747888,0.2339604287182243,0.096808912,-0.01960197,0.17731365648288172,-0.626511321,-0.44611339,9.669634448671804,2.145827603571623,-1.895217179,Drive
49,-21.44444444,-0.959991869,-0.124463634,0.10650518218290458,0.22601331437675698,0.15528033268683164,-0.291173821,2.701930365516144,9.692560807015132,2.2156637594537827,-1.326007059,0.1473906228987916,0.023339703110571118,0.013305202228225116,-52.85588898,-9.354471836,-70.94446312,2.1487314701080322,1.3102670907974243,1.1039179563522339,3.9000000953674316,4.912154197692871,65.11236572265625,160.5,-86.9155193,40.3843764,37.204143295288084,-5.873811879,-5.004561925,0.125858258,0.036625631,0.013763337732898524,0.22160250006370175,-0.657418738,0.15667597992906293,9.692560807015132,2.2156637594537827,-1.326007059,Drive
50,-18.66666667,-0.946171769,-0.121325759,0.098356185,0.2831456959247589,0.1228869919059346,-0.289185476,2.5779974159685155,9.873552794595367,2.219305265,-0.781416309,0.069937563,-0.008969966,0.008786119,-52.74974884,-6.991697879,-71.55068085,2.2496280670166016,1.0682696104049683,1.1139179468154907,3.9000000953674316,5.451164722442627,53.07637023925781,160.5,-86.9154326,40.3843827,37.31016147613526,-3.511769948,-5.61004787,0.048405198,0.004315962,0.009244254,0.3556447167998379,-0.63431337,0.39405057615446815,9.873552794595367,2.219305265,-0.781416309,Drive
51,-21.375,-0.936027439,-0.119778722,0.087701912,0.3188635518828642,0.091688679,-0.284001376,2.498073075581523,9.704431584248177,1.8363648398192778,-0.301691219,0.026347977145421274,0.018156397,-0.008139688,-51.97602505,-5.409723892,-72.23217262,2.3673791885375977,1.0682696104049683,1.1239179372787476,3.9000000953674316,5.947627067565918,46.16118621826172,160.5,-86.9153466,40.3843996,38.08388538360596,-1.929673964,-6.292637877,0.004815611,0.031442325,-0.00768007,0.14996101323840688,-0.961332106,0.5763624330747474,9.704431584248177,1.8363648398192778,-0.301691219,Drive
52,-23.66666667,-0.924235471,-0.106198763,0.06744748,0.3598195004810407,0.050126170902286916,-0.246962601,2.4055127889207264,9.733819600447868,2.0688652471431253,-0.044711517,0.011248781917689061,-0.034186689,0.002060868,-50.46090706,-2.01983193,-73.19133636,2.5148537158966064,0.9980981945991516,1.1339179277420044,3.9000000953674316,5.339212417602539,40.10710906982422,160.5,-86.9152617,40.3844033,39.59888114929199,1.4602179795503616,-7.251313868,-0.010283584,-0.020900762,0.002519004,0.081810211,-0.37639592,0.4364047818681569,9.733819600447868,2.0688652471431253,-0.044711517,Drive
53,-17.125,-0.916167729,-0.109824643,0.045263112,0.3827676012099368,-0.001174358,-0.238126174,2.3499446030959343,9.668388626,2.4315230603356963,0.3708468542470443,-0.01981547,-0.010049327,0.002891146,-49.695723,-2.327027944,-74.02349838,2.6072490215301514,1.1300442218780518,1.1439180374145508,3.9000000953674316,7.066838741,37.866390228271484,160.5,-86.9151812,40.3844398,40.36430923461914,1.1531439739465714,-8.084085884,-0.041347836,0.003236601,0.003349281,0.006549724,0.085112228,0.3575083725696918,9.668388626,2.4315230603356963,0.3708468542470443,Drive
54,-14.44444444,-0.911839176,-0.119245696,0.027576336745642922,0.3918271999335983,-0.044460417,-0.241406319,2.324494373451159,9.599246544,2.3431280099072502,0.6600560616086988,-0.044806833,-0.01360766,-0.002410771,-48.47852913,-3.996597915,-74.74793457,2.7747702598571777,1.4190490245819092,1.1539180278778076,3.9000000953674316,7.249577522277832,36.09856414794922,160.5,-86.9151163,40.3844797,41.58138103485108,-0.516791985,-8.807789788,-0.066339199,-3.22E-04,-0.001952636,-0.045982065,-0.030256649,0.23698624086032793,9.599246544,2.3431280099072502,0.6600560616086988,Drive
55,-15.625,-0.915093244,-0.122917465,0.018924476687335275,0.3835491251598284,-0.061481034,-0.241824674,2.340332906223038,9.780232832,2.3306789554438545,0.5661145426034566,-0.038401832,-0.003347799,0.004195869,-48.43326729,-3.914491942,-76.71457451,2.858875274658203,1.0575915575027466,1.1639180183410645,3.9000000953674316,7.5210795402526855,36.25734329223633,160.5,-86.9150504,40.3845167,41.62700901031494,-0.434808003,-10.77418577,-0.059934198,0.009938129,0.004654004,0.1898365391110911,-0.045546975,-0.029105186,9.780232832,2.3306789554438545,0.5661145426034566,Drive
56,-16.33333333,-0.91971501,-0.121332318,0.023115331217503317,0.3726345140200395,-0.049382281,-0.242780724,2.3656603602262645,9.645264792210847,2.280894308414274,0.22650215004398985,-0.006966008,0.004616596,-5.29E-04,-49.09450699,-5.110457885,-74.03118423,13.704887390136719,1.502664328,1.1739180088043213,3.921999931335449,7.1056132316589355,37.09538269042969,160.5,-86.9149958,40.3845412,40.96564712524414,-1.630529955,-8.090673823,-0.028498374,0.017902523737015705,-7.05E-05,0.036027757021097034,-0.09846489,-0.249632437,9.645264792210847,2.280894308414274,0.22650215004398985,Drive
57,-19.875,-0.921960925,-0.115996448,0.029072533045144913,0.3683404919591922,-0.032777229,-0.23752926,2.377490784358052,9.665943543887833,2.2559351770623217,0.10509544038620677,0.001060087,0.004824507,-0.003691771,-49.34228901,-5.376783891,-73.75058479,15.224563598632812,1.5744205713272095,1.1839179992675781,3.9779999256134033,6.565927982330322,45.148353576660156,160.5,-86.9149275,40.3845511,40.717499237060544,-1.896611927,-7.810561833,-0.020472279,0.018110435311931176,-0.003233635,0.037738874,-0.076355725,-0.210589575,9.665943543887833,2.2559351770623217,0.10509544038620677,Drive
58,-18.66666667,-0.923335532,-0.113872166,0.028294231,0.36562657674539434,-0.031886727,-0.233079544,2.3837795095536314,9.706133685065705,2.2230048411100816,0.21184901582999427,0.001937809,-0.002576827,0.002855563,-49.15758106,-5.204641891,-73.90003456,8.826151847839355,1.435896873474121,1.193917989730835,4.077000141143799,7.1417622566223145,61.72089767456055,160.5,-86.9148112,40.3845574,40.90220733642578,-1.723981946,-7.95988986,-0.019594557,0.010709101520139652,0.003313698,0.04623926,-0.071366279,-0.096274658,9.706133685065705,2.2230048411100816,0.21184901582999427,Drive
59,-18.11111111,-0.923620726,-0.112311437,0.031613998,0.365116933,-0.024271069,-0.232644828,2.3858419460000344,9.720720041145398,2.202146044055235,0.1462699957191944,-2.92E-04,0.003780729,0.001752479,-49.10548725,-5.381297879,-74.07986282,2.845418930053711,1.0020978450775146,1.2039179801940918,4.113999843597412,8.854293823242188,85.72783660888672,160.5,-86.9146537,40.3845371,40.95491107940674,-1.900759948,-8.139961796,-0.021824446,0.017066657431853156,0.002210615,0.051059413,-0.089604451,-0.088452533,9.720720041145398,2.202146044055235,0.1462699957191944,Drive
60,-18,-0.92426989,-0.109148817,0.035972998,0.3640181514823321,-0.013320214,-0.229974017,2.3896737422757934,9.667532013457956,2.1472679324520443,0.1197514815764045,-0.005937969,0.014965757815782162,-0.003134299,-49.48698101,-5.421557875,-73.46644669,5.532513618469238,1.4582524299621582,1.2139179706573486,4.079999923706055,9.699960708618164,86.87086486816406,160.5,-86.9144983,40.3845249,40.57317325592041,-1.940653938,-7.527155848,-0.027470335,0.028251685966167926,-0.002676163,-0.009766824,-0.118575561,-0.009164739,9.667532013457956,2.1472679324520443,0.1197514815764045,Drive
61,-19.44444444,-0.925290123,-0.105935432,0.037705466766091225,0.3622023578986381,-0.007143719,-0.225257132,2.3945635823370184,9.759869153683002,2.150327903720049,0.07370584,-0.002225441,-0.006087716,0.002476007,-49.52870529,-5.373367901,-72.7758046,2.200789213180542,1.0360019207000732,1.2239179611206055,4.079999923706055,10.321111679077148,89.63722229003906,160.5,-86.9143482,40.384513,40.531571044921876,-1.893805959,-6.836025863,-0.023757807,0.007198212,0.002934143,0.078840895,-0.076215477,4.979560459123074E-4,9.759869153683002,2.150327903720049,0.07370584,Drive
62,-19,-0.925814728,-0.104741627,0.039539496,0.3610059381688683,-0.00247715,-0.224365761,2.3977126797426096,9.641492630671529,2.1169975689313945,0.061696492348010966,-0.008499969,0.016080702402972553,-0.002161688,-49.38315903,-5.412895896,-73.61492058,1.716604471206665,0.9840731620788574,1.2339179515838623,4.021999835968018,10.727743148803711,90.86471557617188,160.5,-86.9142034,40.3844998,40.67699539,-1.932723972,-7.674775848,-0.030032335,0.02936663,-0.001703552,-0.044375596,-0.087169448,0.050356916,9.641492630671529,2.1169975689313945,0.061696492348010966,Drive
63,-16.55555556,-0.927257696,-0.101255235,0.044000463180460976,0.3577730759833623,0.009373515,-0.221060176,2.4061523571755123,9.740411429729276,2.1206622968599635,0.019409739,-0.009508164,0.002665785,-5.04E-05,-49.89421692,-5.878691902,-72.58682663,2.2105066776275635,1.170683503,1.2439179420471191,5.110000133514404,10.94878101348877,91.80214691,160.5,-86.9140654,40.3844919,40.16593730926514,-2.39864197,-6.646925869,-0.03104053,0.015951712974641038,4.077257104760524E-4,0.065123206,-0.059101417,0.10428533207588983,9.740411429729276,2.1206622968599635,0.019409739,Drive
64,-16.875,-0.928695812,-0.098466173,0.049914259,0.354006421,0.023565204,-0.219994155,2.4158280011519646,9.728917788533332,2.1079780123766185,-0.322325408,-0.001264691,0.023671814057415405,0.001325479,-50.11101093,-6.216265883,-72.10126656,2.4885478019714355,1.0744765996932983,1.253917932510376,6.318999767303467,11.309440612792969,92.75431060791016,160.5,-86.9139145,40.3844819,39.949021339416504,-2.736459951,-6.161731887,-0.022797057,0.036957742,0.001783615,0.075457466,-0.049678781,-0.088709754,9.728917788533332,2.1079780123766185,-0.322325408,Drive
65,-17.55555556,-0.928224535,-0.095490412,0.055122487,0.3552895309855637,0.035330518,-0.218171605,2.4143449542591875,9.698717098791622,1.9928408444506451,-0.489181224,0.018638254477850443,-0.003798521,-0.004510188,-50.41564503,-6.193939886,-71.73648674,0.9697709679603577,0.916787863,1.2639179229736328,6.921000003814697,11.409246444702148,89.15790557861328,160.5,-86.9137668,40.3844737,39.644631156921385,-2.713645937,-5.796463909,-0.002894111,0.009487407,-0.004052052,0.013409318,-0.147737656,-0.145098008,9.698717098791622,1.9928408444506451,-0.489181224,Drive
66,-15.5,-0.926672134,-0.094277393,0.052739252,0.36000845523980946,0.030565690231294587,-0.214338406,2.403780017907803,9.641062819841997,2.2131460488421246,-0.369281652,0.017068482,0.00287803,0.001844289,-51.77008915,-7.934147863,-72.66966484,1.0126086473464966,1.0153324604034424,1.2739180326461792,7.925000190734863,11.5670805,88.05150604248047,160.5,-86.9136185,40.3844698,38.29006519317627,-4.454829895,-6.729885845,-0.004463884,0.016163958371460188,0.002302424,-0.020405467,0.1056479479257877,-0.080016439,9.641062819841997,2.2131460488421246,-0.369281652,Drive
67,-18.55555556,-0.92631264,-0.090378937,0.060384278,0.3607167633413111,0.047762438835738934,-0.212603688,2.4040089232250326,9.769947172368614,2.042224763087856,-0.563480695,0.015459476581331595,0.019639036057571186,0.001598285,-52.19416088,-7.317437835,-72.07552452,1.0190457105636597,1.0065783262252808,1.283918023109436,8.930999755859375,11.80009651184082,87.02927399,160.5,-86.9134702,40.3844684,37.865627403259275,-3.838363936,-6.135379853,-0.006072889,0.032924964,0.00205642,0.096869496,-0.048352292,-0.101081206,9.769947172368614,2.042224763087856,-0.563480695,Drive
68,-17.5,-0.924011974,-0.088891962,0.062967629,0.36650279829803023,0.05240911,-0.212017348,2.3919529613939305,9.664488727606615,2.0071629349467823,-0.779845294,0.039241006,-0.001461882,-0.003158021,-52.27821915,-6.82138587,-72.07210854,0.663565993,0.916787863,1.2939180135726929,9.935999870300293,11.939093589782715,85.04582214355469,160.5,-86.9133222,40.3844694,37.78193531036377,-3.341457927,-6.131719851,0.01770864,0.011824046014649883,-0.002699886,-0.017717361,-0.079818854,-0.271960888,9.664488727606615,2.0071629349467823,-0.779845294,Drive
69,-18.11111111,-0.919158916,-0.086883436,0.063371456,0.3788875248825666,0.051807499,-0.209282549,2.3650591952129476,9.716317639767546,2.0037885811722393,-0.808846651,0.047342145146386135,0.009497785,-0.002315882,-52.3010331,-5.334083881,-72.46324074,0.762382984,0.985951304,1.3039180040359497,9.935999870300293,12.08604907989502,82.15554809570312,160.5,-86.9131743,40.3844732,37.758755378723144,-1.85452195,-6.522851882,0.025809779,0.022783713466126145,-0.001857747,0.027015787883869654,-0.056936052,-0.306412025,9.716317639767546,2.0037885811722393,-0.808846651,Drive
70,-17,-0.911469972,-0.084480487,0.069905566,0.396421028,0.061859947,-0.211002498,2.327650466011566,9.732334430401142,2.0137788309500766,-1.085665627,0.069818952,0.005109174,0.001289896,-52.33702297,-3.381961923,-72.55754684,0.740990162,0.949999988,1.3139179944992065,9.93500042,12.268330574035645,79.20373535,160.5,-86.9130257,40.3844849,37.72264320373535,0.098941996,-6.617279887,0.048286586,0.018395102,0.001748031,0.04234976,-0.064545151,-0.485910875,9.732334430401142,2.0137788309500766,-1.085665627,Drive
71,-18.55555556,-0.90049579,-0.080825645,0.076656665,0.42027672315106807,0.071782033,-0.211612255,2.2758842093273275,9.719038653142244,2.0310156565268063,-0.859833519,0.057412229,0.016436536,-0.001497465,-52.46073105,-1.470953961,-72.62623222,0.803782046,0.9935793876647949,1.3239179849624634,9.93500042,12.355273246765137,74.76260375976562,160.5,-86.9128821,40.3845053,37.59869141,2.0093399548530577,-6.685965896,0.035879863,0.029722463687682905,-0.00103933,0.03092807,-0.061792749,-0.174237923,9.719038653142244,2.0310156565268063,-0.859833519,Drive
72,-17.33333333,-0.889140447,-0.080346964,0.072696975,0.4444966611352939,0.059204360741434744,-0.208959578,2.2206554181367446,9.698937823471514,2.006280149070962,-0.26310595,5.619202133548419E-4,0.011893729912117124,-0.003300354,-52.53002728,-0.659165993,-72.33599449,0.7697350382804871,0.9027181267738342,1.3339179754257202,9.93500042,12.426979064941406,73.22379302978516,160.5,-86.9127346,40.3845317,37.53012718200684,2.820029921531677,-6.395727878,-0.020970446,0.025179658058547025,-0.002842219,-0.007364625,-0.051574032,0.31914609656171894,9.698937823471514,2.006280149070962,-0.26310595,Drive
73,-17,-0.883363169,-0.079615044,0.068677074,0.45673536039093166,0.049667273693293046,-0.204818541,2.1923239508878836,9.775217676625669,2.0070903393828754,-0.391153905,0.013609143162770107,-0.006206327,0.002689507,-52.61310894,-0.261811999,-72.25096024,0.708331287,0.9231467843055725,1.343917965888977,9.93500042,12.362799644470215,73.08261108398438,160.5,-86.912588,40.3845566,37.44667934417725,3.2182379484176638,-6.31105988,-0.007923223,0.007079601,0.003147643,0.044391137,-0.017243435,0.087380179,9.775217676625669,2.0070903393828754,-0.391153905,Drive
74,-18.66666667,-0.881010655,-0.081173397,0.064532911,0.46157670339334356,0.039609159,-0.204024253,2.1804451687822066,9.774459764795395,1.8169015970044924,-0.147065669,-0.00488233,0.005583618,0.00165759,-52.5087991,-0.097233997,-72.53375671,0.5117665529251099,0.9027181267738342,1.3539179563522339,9.93500042,12.521021842956543,73.79477692,160.5,-86.9124371,40.3845799,37.551355056762695,3.382205936908722,-6.593977885,-0.026414696,0.018869546303091553,0.002115726,0.034589703,-0.203687615,0.24092002401074158,9.774459764795395,1.8169015970044924,-0.147065669,Drive
75,-21.875,-0.877180704,-0.075961742,0.06591728,0.4694910794496536,0.045208042,-0.196434216,2.1631813759987173,9.709868107027221,1.6219765729117162,-0.235411354,-0.004875031,0.011747062755882954,-0.005462384,-52.73096092,-0.33647599,-72.17031853,0.4895024299621582,0.9090654253959656,1.3639179468154907,9.93500042,12.489288330078125,74.00043487548828,160.5,-86.9122878,40.3846033,37.328827438354494,3.1438179349899293,-6.230295887,-0.026407397,0.025032990598657098,-0.005004249,-0.007723597,-0.305008962,0.20384271772435078,9.709868107027221,1.6219765729117162,-0.235411354,Drive
76,-20,-0.873300077,-0.071797319,0.064434813,0.47751921386394686,0.044786084,-0.188044164,2.145052956145944,9.866275648468907,1.5173689834050184,-0.276757234,-0.003885997,0.00208459,2.461181675508908E-4,-51.24158527,-0.867785975,-71.50224686,0.5619950890541077,1.1898319721221924,1.3739179372787476,9.93500042,12.65372085571289,73.84851074,160.5,-86.9121379,40.384626,38.81808116912842,2.6131179690361024,-5.561979923,-0.025418363,0.015370518448355706,7.042534478704978E-4,0.1126601071033663,-0.340555888,0.16035838092415078,9.866275648468907,1.5173689834050184,-0.276757234,Drive
77,-23.125,-0.868431579,-0.063004425,0.06572148,0.4873635543202891,0.05358457,-0.174378214,2.123473935914271,9.876003737588531,1.2131959275134558,-0.332823046,-0.009342108,0.007813507,0.002167618,-51.40616299,-1.269287967,-70.92835823,0.4602542221546173,0.9027181267738342,1.383918046951294,9.93500042,11.955269813537598,75.26944732666016,160.5,-86.9119964,40.3846475,38.65399136,2.2097859561443327,-4.988213911,-0.030874474,0.021099435,0.002625754,0.10700409620710948,-0.510245193,0.19116021880825745,9.876003737588531,1.2131959275134558,-0.332823046,Drive
78,-21.88888889,-0.850065081,-0.0565349,0.050779298,0.5204835056679921,0.028195847250527966,-0.149193318,2.045043875870195,9.943014437,1.0483786546200224,0.20967108465604556,-0.044190055,-0.021530883,0.015416480085441789,-51.18924679,-2.171477939,-71.1489344,0.4418160021305084,0.9360555410385132,1.3939180374145508,9.93500042,10.637588500976562,76.02095794677734,160.5,-86.911863,40.384665,38.870175437927244,1.3082059839367866,-5.208911891,-0.065722421,-0.008244955,0.015874615524560938,0.1296549167447877,-0.427646228,0.48619888889268764,9.943014437,1.0483786546200224,0.20967108465604556,Drive
79,-19.875,-0.857243408,-0.069975292,0.017925125624175246,0.5090857171317906,-0.040739644,-0.139307288,2.0668568333375803,10.032300912060784,1.4941115686749062,1.9413632231863958,-0.191813453,-0.068631358,0.007173007,-50.40161499,-3.457479939,-72.39919113,0.5112462043762207,1.1566330194473267,1.4039180278778076,9.93500042,10.467982292175293,83.99549102783203,160.5,-86.9117436,40.3846743,39.658539276123044,0.023302002493292093,-6.459411879,-0.213345819,-0.055345431,0.007631143,0.20683428847674026,0.11453313619187734,1.540532695581612,10.032300912060784,1.4941115686749062,1.9413632231863958,Drive
80,-22.88888889,-0.880276435,-0.104680627,-0.027858836,0.4615308263348144,-0.148129401,-0.159353292,2.1639442675322007,9.920467239159803,1.3298744547825594,2.3164306305921993,-0.24918565,-0.042311551,0.002037146,-49.147089,-9.654469867,-72.63696884,0.5836681723594666,1.0207840204238892,1.4139180183410645,9.93500042,9.330296516418457,98.97060394,160.5,-86.9116333,40.3846657,40.912943267822264,-6.175029864,-6.69718987,-0.270718016,-0.029025623,0.002495281,0.07468405,-0.272800496,0.8464093410853043,9.920467239159803,1.3298744547825594,2.3164306305921993,Drive
81,-22.44444444,-0.910266772,-0.122129994,-0.057668489,0.3899945732459281,-0.204969003,-0.178606567,2.3136203126999937,9.754501203888829,1.4897644074217786,1.7491417387952504,-0.21140801,-0.048289551,-0.020617577,-48.12631512,-15.5413356,-71.44258873,0.6589607000350952,1.024158239364624,1.4239180088043213,9.93500042,8.882266998291016,111.93211364746094,160.5,-86.9115303,40.3846361,41.933717231750485,-12.06201776,-5.50244391,-0.232940375,-0.035003623,-0.020159442,-0.012733793,-0.310887863,-0.265546895,9.754501203888829,1.4897644074217786,1.7491417387952504,Drive
82,-27.375,-0.941040321,-0.12508728,-0.05011118,0.30984481243253914,-0.176376921,-0.205679098,2.4872228219671157,9.855731575234422,1.738954813156313,0.070411131,-0.040038666,-0.007700827,0.028843258,-47.91867111,-19.20365356,-69.83121246,0.736539364,0.9808160066604614,1.4339179992675781,9.93500042,8.635751724243164,117.95821380615234,160.5,-86.9114349,40.384594,42.14160519,-15.72372575,-3.891921916,-0.061571031,0.005585101,0.029301394,0.1352380687750659,-0.329543159,-1.656537937,9.855731575234422,1.738954813156313,0.070411131,Drive
83,-20.88888889,-0.97457635,-0.10294751,0.003017967,0.18595279637470985,-0.033115535,-0.199428396,2.7611912870870055,9.616725162394996,1.9877154537774984,-0.970022425,0.080209286,0.030254731,-0.011840355,-48.15400909,-18.88669762,-69.66041298,0.8022499084472656,1.1957006454467773,1.443917989730835,9.93500042,8.796402931213379,117.01409912109375,160.5,-86.9113459,40.3845543,41.90590106964111,-15.40640368,-3.720023911,0.058676920618717245,0.043540658998908924,-0.011382219,-0.107758031,0.020130655140552706,-1.282342266,9.616725162394996,1.9877154537774984,-0.970022425,Drive
84,-20.875,-0.989618285,-0.10314441,0.08687422,0.038694832853755905,0.16884114029048716,-0.211517697,3.081621797,9.690516471862793,2.0294330282118715,-2.484490403,0.24232696170367082,0.069953873,-0.006372382,-49.40084919,-13.99352171,-70.70485435,0.8842092752456665,1.4582524299621582,1.4539179801940918,9.989999771118164,9.206374168395996,105.08551788330078,160.5,-86.9112441,40.3845168,40.65906120300293,-10.51322778,-4.764831915,0.22079459628433856,0.083239801,-0.005914247,0.060604280638463286,-0.070014709,-0.828507131,9.690516471862793,2.0294330282118715,-2.484490403,Drive
85,-21.55555556,-0.981593843,-0.108772413,0.1439045174047351,0.056171252929533906,0.2814346437270825,-0.232394275,3.0603336485532613,9.524267548496283,1.8631347568289747,-3.501289018,0.3450934626162052,0.092861999,-0.024574855,-51.83548107,-6.534563886,-72.39760452,0.9562892317771912,1.0484750270843506,1.4639179706573486,9.989999771118164,8.241995811462402,87.01197052001953,160.5,-86.9111481,40.3845125,38.22442913,-3.055245937,-6.45745986,0.32356109326848614,0.1061464583214659,-0.02411672,0.025075453978318434,-0.479319439,-0.747755124,9.524267548496283,1.8631347568289747,-3.501289018,Drive
86,-21.5,-0.96189742,-0.100277684,0.1788833232469929,0.176839438,0.32566489525211667,-0.259951106,2.820769358607172,9.673691207922777,1.6678351299855316,-3.996989531,0.4173732509890806,0.080526571,-0.023997994,-53.37414494,3.749547921195626,-71.18309448,1.0445138216018677,1.4182384014129639,1.4739179611206055,9.980999946594238,8.093042373657227,62.26753616333008,160.5,-86.9110544,40.3845294,36.68552139282227,7.229597860574723,-5.24343787,0.3958408835443478,0.093808051,-0.023539859,0.2791359494033369,-0.969635031,-0.823442628,9.673691207922777,1.6678351299855316,-3.996989531,Drive
87,-27.55555556,-0.890592236,-0.073449435,0.21153153291026366,0.3783510061143671,0.3470421499997667,-0.300432132,2.39035571,9.566455581813182,1.551280857000536,-4.080369535,0.4320098618859226,0.10865371467803324,-0.020392216,-55.38433899,13.087915725708008,-67.11012497,1.1320176124572754,1.2434227466583252,1.4839179515838623,9.980999946594238,7.8354926109313965,39.31025314331055,160.5,-86.9109754,40.384576,34.675937232971194,16.567721710205078,-1.170345973,0.41047749820264795,0.12189516389416982,-0.019934081,0.29080079828651206,-1.504991604,-0.725423954,9.566455581813182,1.551280857000536,-4.080369535,Drive
88,-27.375,-0.276991135,0.12456812809935762,0.16966848466002826,0.9132205068486409,0.35842156005137177,-0.253347754,0.639060356,9.526486156056228,1.627444637631907,-3.674402783,0.41087336274026665,0.063015122,-0.035408384,-56.745737,19.631019649505614,-61.26669071,1.2220051288604736,1.1898319721221924,1.4939179420471191,9.989999771118164,7.702700614929199,16.109182357788086,160.5,-86.9109256,40.3846423,3.869229917526245,25.25753746032715,-10.29094384,0.38934099616356266,0.07630105,-0.034950249,0.1782442389182674,-0.957471523,-0.172754318,9.526486156056228,1.627444637631907,-3.674402783,Drive
89,-26.11111111,0.040007892979684205,0.17096482463253354,0.13214449324075458,0.9736024818374115,0.3414701813633002,-0.275461582,-0.034573852,9.720295566778917,1.6048908835420241,-3.900853102,0.4303137237585864,0.096135794,-0.019028188,-57.1169828,21.532145652770996,-54.91598087,1.3009917736053467,1.0761505365371704,1.503917932510376,9.980999946594238,7.783792495727539,352.0160827636719,160.5,-86.9109294,40.3847156,-16.1370617,23.75193561553955,-6.675229895,0.40878135833925416,0.10939355254245614,-0.018570053,0.3251069818885581,-1.213612257,-0.560852581,9.720295566778917,1.6048908835420241,-3.900853102,Drive
90,-27.75,0.22909261257324404,0.1920537945714969,0.098890146,0.9483429691166554,0.3386340410385317,-0.279064932,-0.42601452,9.498736381530762,1.832574008737953,-2.866383733,0.3648996926048427,0.054392093667100426,-0.041327079,-56.99900902,19.426059665679933,-47.53973919,1.3919624090194702,1.1094142198562622,1.5139180421829224,9.93500042,7.586521148681641,328.2011719,160.5,-86.9109677,40.3847825,-16.01920971,21.646337604522706,0.7000359833240509,0.3433673247260955,0.067678022,-0.040868943,0.13544257636209137,-1.017213246,0.4061939230242979,9.498736381530762,1.832574008737953,-2.866383733,Drive
91,-20.88888889,0.25512494580838285,0.1596241007441456,0.10621253299771004,0.9468649972989721,0.2617082386051567,-0.287956584,-0.488179968,9.506086164307826,2.1288164784607377,-0.385691647,0.051837506472332026,0.012036063247224659,-0.017486244,-56.13354092,17.388903770446777,-44.50181694,1.457008957862854,0.9420191049575806,1.5239180326461792,9.93500042,7.798278809,318.0766602,160.5,-86.911037,40.3848369,-15.15361966,19.60893778,3.738567922115326,0.030305141,0.025321991295888295,-0.017028109,0.087007124,-0.762895336,2.126877265069091,9.506086164307826,2.1288164784607377,-0.385691647,Drive
92,-20.66666667,0.054003834,0.051212329,0.1191538215696233,0.9890289266132614,0.091389143,-0.245328143,-0.097886984,9.841682453,2.1912708988467466,0.16964647800489827,-0.047914444,-0.014995411,0.021477508229809334,-56.05741302,17.652301597595216,-45.03446918,1.340277075767517,0.9464142918586731,1.533918023109436,9.93500042,8.384982109069824,318.98870849609375,160.5,-86.9111149,40.3848892,-15.0773697,19.87221357345581,3.2054279375076296,-0.06944681,-0.001709483,0.021935643,0.2655425118011178,-0.222096449,1.0458616304744794,9.841682453,2.1912708988467466,0.16964647800489827,Drive
93,-30.25,-0.019586381,0.021306882015637404,0.12322351155639852,0.9917548078935123,0.048510591,-0.246293485,0.04550289,9.705488992,2.208264583522834,0.3308774252214189,-0.059846722,-0.004047604,-0.002671715,-55.58466286,18.179219589233398,-46.22445724,1.1089410781860352,0.9121403694152832,1.5439180135726929,9.93500042,8.885200500488281,321.9742736816406,160.5,-86.9111869,40.3849475,-14.60474174,20.399131603240967,2.0154399394989015,-0.081379087,0.009238324,-0.00221358,0.064409807,-0.221325455,0.7952303595623924,9.705488992,2.208264583522834,0.3308774252214189,Drive
94,-19.88888889,-0.079044971,0.004114796,0.11987165855960204,0.9895145973333945,0.027875326,-0.238958126,0.16277378790367109,9.672512179439508,2.3071282199285563,0.43703279493250025,-0.072455883,-0.012393151,0.004099725,-55.52268711,19.351883602142333,-47.11225109,0.9533891677856445,0.9261749386787415,1.5539180040359497,9.93500042,9.373962402,325.9665832519531,160.5,-86.9112573,40.3850139,-14.54239975,21.571795558929445,1.1277679693698883,-0.093988249,8.927769695919079E-4,0.00455786,0.027538836002349854,-0.03772991,0.7067292882845952,9.672512179439508,2.3071282199285563,0.43703279493250025,Drive
95,-17.125,-0.134003206,-0.018783924,0.12581924204398126,0.9826483414011095,-0.003201923,-0.255252462,0.2706331801645964,9.881672243470128,2.5209460976054365,0.669101744,-0.077733279,-0.02501805,0.026731980863949557,-55.88075691,20.457203540802002,-48.32712711,0.8813775181770325,0.9183136820793152,1.5639179944992065,9.93500042,10.001882553100586,329.9666748046875,160.5,-86.9113229,40.3850906,-14.90095771,22.67748155593872,-0.087473996,-0.099265645,-0.011732122,0.027190115959473966,0.21783011630900856,-0.001066696,0.6381901579827649,9.881672243470128,2.5209460976054365,0.669101744,Drive
96,-18.66666667,-0.208205195,-0.05301786,0.12058147520405575,0.9687501614533581,-0.054461305,-0.259225244,0.41632999320632047,9.663739519211852,2.458326162643803,0.9658320735669831,-0.104373335,-0.010535632,0.003496063,-56.02898682,19.780591678619384,-49.73769112,0.9054938554763794,0.9761659502983093,1.5739179849624634,9.93500042,10.48923110961914,335.95977783203125,160.5,-86.9113814,40.3851771,-15.0491877,22.00062566757202,-1.497793956,-0.125905701,0.002750295,0.003954198,0.012561446254693189,-0.105328119,0.43963934293071044,9.663739519211852,2.458326162643803,0.9658320735669831,Drive
97,-14.375,-0.256992906,-0.063932159,0.11509490222896188,0.9573863519048228,-0.065444343,-0.256005721,0.5160653654811451,9.591487301206126,2.474242488157402,0.538318303,-0.075206862,-0.008981827,-0.00432041,-55.82000099,20.71071964263916,-50.6611092,0.8648673892021179,0.9261749386787415,1.5839179754257202,9.93500042,11.118672370910645,340.9726257324219,160.5,-86.9114264,40.3852723,-14.8399577,22.93038755,-2.42121194,-0.096739228,0.004304101,-0.003862274,-0.051615437,-0.055418592,-0.09399815,9.591487301206126,2.474242488157402,0.538318303,Drive
98,-19.66666667,-0.254200806,-0.045026655,0.11935096791068327,0.9586832992081503,-0.02651296,-0.254501169,0.5149952532018273,9.774520827728567,2.324162578119815,0.013012423898880054,-0.031771471,-2.99E-04,0.00911823,-56.41475101,21.121371536254884,-51.83865311,0.9071044325828552,1.0042409896850586,1.593917965888977,9.93500042,11.551008224487305,343.9829102,160.5,-86.9114647,40.3853725,-15.43482971,23.341771545410158,-3.598877926,-0.053303836,0.012986434819131584,0.009576365,0.11313501376550174,-0.190212751,-0.242820784,9.774520827728567,2.324162578119815,0.013012423898880054,Drive
99,-14.125,-0.243624425,-0.034595582,0.11578396620970328,0.9623017218506452,-0.010458615,-0.242063367,0.4946411966698841,9.641804089913002,2.1152034482130637,-0.150589649,-0.012497164,-0.004367854,-0.002327743,-57.47761501,19.82743963241577,-52.16805298,0.7006608247756958,0.9231467843055725,1.6039179563522339,9.93500042,11.746904373168945,344.9949645996094,160.5,-86.9114987,40.38548,-16.49732775,22.047473526000978,-3.92766793,-0.03402953,0.008918074,-0.001869608,-0.04419274,-0.281819929,-0.256746992,9.641804089913002,2.1152034482130637,-0.150589649,Drive
100,-13,-0.236865751,-0.030357977,0.11674031810563745,0.9640215860987172,-0.003327259,-0.241817229,0.4814627995190111,9.642950391,2.4744370585506403,-0.214561269,-0.006009136,-0.001948187,4.447918516375775E-5,-57.369645,20.335813674926758,-52.25345284,0.5317859649658203,0.9090654253959656,1.6139179468154907,9.93500042,12.174674987792969,344.9939270019531,160.5,-86.9115347,40.3855896,-16.38972376,22.55572551727295,-4.012823939,-0.027541502,0.011337740438339274,5.026146468878227E-4,-0.027058416,0.088885308,-0.240930913,9.642950391,2.4744370585506403,-0.214561269,Drive
101,-15.375,-0.225627266,-0.022398138,0.1188795958618516,0.9666468431648699,0.010649508,-0.242353347,0.4599164805365998,9.596113223474003,2.4473580932154237,-0.291985346,-0.001240969,0.005085452,-0.002647993,-57.14919083,20.366557598114014,-52.36959698,0.40466737747192383,0.8949860334396362,1.6239179372787476,9.93500042,12.753711700439453,343.99395751953125,160.5,-86.9115704,40.3857009,-16.16939169,22.58671356201172,-4.129821935,-0.022773335,0.018371379804838158,-0.002189858,-0.058569843,0.061251299,-0.184383211,9.596113223474003,2.4473580932154237,-0.291985346,Drive
102,-18.88888889,-0.211594759,-0.011880008,0.12049108577295414,0.9698209073937055,0.028792238,-0.241076692,0.43311127846680797,9.553251479435893,2.346455908516078,-0.358496523,0.003159504,0.003851896,-0.006147021,-57.17029705,20.327639598846435,-51.67932114,0.38167986273765564,0.9090654253959656,1.633918046951294,9.93500042,13.273579597473145,343.99285888671875,160.5,-86.9116094,40.3858165,-16.19000967,22.54767358779907,-3.439667922,-0.018372862,0.017137824,-0.005688886,-0.04875416,-0.009725208,-0.084710755,9.553251479435893,2.346455908516078,-0.358496523,Drive
103,-19.75,-0.199191222,-0.003926212,0.11607491296644394,0.9730470386835245,0.039662423,-0.229469966,0.4084100046983132,9.607406486585303,2.2128992219573087,-0.399052541,0.003347913,3.054236417833286E-4,-0.005485878,-57.05830074,21.645849590301513,-52.18793911,0.3404150605201721,0.888650656,1.6439180374145508,9.93500042,13.734579086303711,343.9941711425781,160.5,-86.9116529,40.3859372,-16.07837975,23.866127643585205,-3.947797933,-0.018184453,0.013591351632875068,-0.005027743,-3.02E-05,-0.034833575,-0.018371856,9.607406486585303,2.2128992219573087,-0.399052541,Drive
104,-18.88888889,-0.192934738,-0.003567347,0.11181948992233832,0.9748097345666978,0.037108975,-0.221184455,0.3949109255110176,9.564884583926895,2.150215389659104,-0.3333835,5.381979654063878E-4,0.004943118,-0.00827016,-57.37025494,21.89973154067993,-52.16048897,0.3483419418334961,0.8949860334396362,1.6539180278778076,9.93500042,14.115448951721191,343.9952392578125,160.5,-86.9116979,40.3860606,-16.39008971,24.11976552963257,-3.920469902,-0.020994168,0.018229046385527307,-0.007812025,-0.047469334,-0.0128114,0.023455485,9.564884583926895,2.150215389659104,-0.3333835,Drive
105,-21.88888889,-0.188180436,-0.003157672,0.1094011947946641,0.976014585,0.035858471,-0.216426504,0.3848342342862805,9.801210634916732,2.1012583693254343,-0.32381221,-3.16E-04,-0.00528116,0.005227785,-57.21433895,21.162851524353027,-51.81962105,0.34644100069999695,0.9090654253959656,1.6639180183410645,9.93500042,14.486320495605469,342.9975280761719,160.5,-86.9117438,40.3861884,-16.23441766,23.382885608673096,-3.579601929,-0.021848168,0.008004768,0.005685921,0.10908606445905074,-0.031207684,0.023834025396884066,9.801210634916732,2.1012583693254343,-0.32381221,Drive
106,-18.625,-0.184764204,-0.007097301,0.10265441079741543,0.9773763684393133,0.024583283,-0.204711329,0.37620537142151766,9.700375242140687,1.9486229940525537,-0.20444695,-0.002889663,-0.006502855,-0.003158021,-57.82421688,21.990987567901612,-52.29908096,0.3566434681415558,0.8949860334396362,1.6739180088043213,9.93500042,14.785635948181152,343.9943848,160.5,-86.9117884,40.3863185,-16.84429564,24.211021461486816,-4.059427919,-0.024422029,0.006783073,-0.002699886,-0.019131253,-0.070073628,0.034566314,9.700375242140687,1.9486229940525537,-0.20444695,Drive
107,-21.44444444,-0.181657819,-0.009613418,0.098749359,0.9783420423859531,0.017410212883599174,-0.198007158,0.36890548525504696,9.762568270118491,1.8457316356955222,-0.163742828,-0.002486386,7.205626009556564E-4,8.391737011125655E-4,-57.08074886,21.583629531860353,-52.88089909,0.3381127715110779,0.8949860334396362,1.6839179992675781,9.93500042,14.967849731445312,343.99786376953125,160.5,-86.9118326,40.3864508,-16.1005837,23.804029598236085,-4.640391932,-0.024018751,0.014006491,0.001297309,0.035081326382831464,-0.106218227,0.005655159,9.762568270118491,1.8457316356955222,-0.163742828,Drive
108,-23.375,-0.176911479,-0.006046301,0.095858099,0.9795271140857807,0.02248497,-0.191093886,0.359519863,9.786348407085125,1.7526074200868607,-0.24692089,3.0097571479662964E-4,0.004077257,4.003125862263649E-4,-57.09002083,22.13226360321045,-52.72547077,0.34887465834617615,0.8949860334396362,1.693917989730835,9.93500042,15.049049377441406,343.99908447265625,160.5,-86.9118783,40.3865829,-16.10985575,24.352053623199463,-4.485573921,-0.02123139,0.017363185,8.58447953009779E-4,0.017116287379588896,-0.134456264,-0.02681167,9.786348407085125,1.7526074200868607,-0.24692089,Drive
109,-20.5,-0.171060027,-0.00232956,0.09230877,0.9809192743116212,0.02747795,-0.182917029,0.34781871981991147,9.731002779840265,1.7102118996740545,-0.288253818,0.001748031,0.004468674,-0.002375188,-57.32291889,21.864717540740966,-52.99435898,0.3434247672557831,0.8949860334396362,1.7039179801940918,9.93500042,15.069779396057129,343.9997863769531,160.5,-86.9119249,40.3867155,-16.34275372,24.08462947845459,-4.754217939,-0.019784335,0.017754602,-0.001917052,-0.07035011,-0.105772512,-0.022312254,9.731002779840265,1.7102118996740545,-0.288253818,Drive
110,-19.66666667,-0.16503826,0.001079768,0.088408351,0.9823145889541478,0.031789623,-0.17421342,0.33568643655591796,9.834123555896351,1.5818067661766868,-0.316157502,0.003408587,-0.001473743,4.447913995392404E-5,-57.01877281,21.56642755508423,-52.24137493,0.3306252956390381,0.8949860334396362,1.7139179706573486,9.93500042,15.010702133178711,344.0007019042969,160.5,-86.9119714,40.3868448,-16.03872971,23.786217460632326,-4.001355937,-0.018123779,0.011812184988724484,5.026145231259028E-4,0.032347031010007396,-0.142567774,-9.39E-04,9.834123555896351,1.5818067661766868,-0.316157502,Drive
111,-21.25,-0.15976226,-8.43E-05,0.086682529,0.9833410451713117,0.027946058,-0.171340463,0.324524115,9.835703294254044,1.583885966574104,-0.24226458,0.00226992,-0.001485604,0.002819979,-57.46260883,22.385657634735107,-52.47500504,0.3144439160823822,0.888650656,1.7239179611206055,9.93500042,14.812337875366211,344.0023193359375,160.5,-86.9120199,40.3869725,-16.48280962,24.60581356048584,-4.234741926,-0.019262446,0.011800323713014753,0.003278115,0.009007746,-0.116629947,0.02667466,9.835703294254044,1.583885966574104,-0.24226458,Drive
112,-18.22222222,-0.155818814,-0.001226108,0.085620495,0.9840659371857504,0.024626512,-0.169706732,0.31617142303476053,9.889068464631016,1.6100734318923025,-0.216533023,0.00237667,-0.002090521,0.004753341,-57.47529697,21.841537704467772,-52.74877308,0.31204313039779663,0.888650656,1.7339179515838623,9.93500042,14.61235523223877,344.00238037109375,160.5,-86.9120688,40.3870982,-16.49537565,24.061449584960936,-4.508875914,-0.019155696,0.011195407051240428,0.005211476,0.085584548,-0.078260662,0.035818635,9.889068464631016,1.6100734318923025,-0.216533023,Drive
113,-17,-0.152476293,0.001999522,0.087603466,0.9844113324697201,0.031119995517656207,-0.172727403,0.3100331316773708,9.868950158646964,1.5284154582949518,-0.25494596,-0.001327418,0.014636840128402513,0.004910272,-57.37086468,21.203599605560303,-52.53783516,0.3272814452648163,0.8949860334396362,1.7439179420471191,9.93500042,14.462583541870117,343.0042419433594,160.5,-86.9121181,40.3872253,-16.39045576,23.42363353729248,-4.297449937,-0.022859784,0.027922768244864598,0.005368408,0.051726442,-0.178267555,0.045207751055176444,9.868950158646964,1.5284154582949518,-0.25494596,Drive
114,-15.44444444,-0.150459757,0.003562721,0.07946162,0.9853973764817692,0.031328653,-0.156165919,0.3055118481511051,9.934009385340422,1.373567313823885,-0.241030419,-0.001739136,-0.007190799,0.003128368,-57.61315678,20.946179485321046,-52.56674915,0.3390490710735321,0.8949860334396362,1.753917932510376,9.93500042,14.01458454,344.0035095214844,160.5,-86.9121649,40.387348,-16.63335775,23.166335430145264,-4.326607921,-0.023271501,0.006095129,0.003586504,0.096256099,-0.176100399,0.067114465,9.934009385340422,1.373567313823885,-0.241030419,Drive
115,-18.22222222,-0.151287778,-0.00185187,0.071901821,0.9858679082787153,0.018290516676254642,-0.142817283,0.3058458997786624,9.879256174402329,1.3445020740471998,-0.147309595,-0.007989941,0.004848229,0.003258841,-56.87542282,20.34850170135498,-52.87309113,0.32681727409362793,0.888650656,1.7639180421829224,9.93500042,13.506038665771484,344.0066223144531,160.5,-86.9122085,40.3874672,-15.8956237,22.568535614013673,-4.633071909,-0.029522307,0.018134157512409304,0.003716976,-0.036021529,-0.08160305,0.034074829,9.879256174402329,1.3445020740471998,-0.147309595,Drive
116,-18.5,-0.151696356,-0.001324334,0.06868276,0.9860366530788754,0.018397848809011352,-0.136270379,0.3065512035656901,9.835482597351074,1.3442320094525235,-0.201441401,-0.002996413,-0.006906132,-5.04E-05,-57.15333893,19.95419759750366,-52.50648117,0.3433718979358673,0.8949860334396362,1.7739180326461792,9.93500042,12.85779094696045,344.00897216796875,160.5,-86.9122481,40.38758,-16.17329572,22.174109554290773,-4.266583936,-0.024528779,0.006379796,4.077257392973214E-4,-0.025326146,-0.008120135,-0.019999988,9.835482597351074,1.3442320094525235,-0.201441401,Drive
117,-18,-0.149081784,6.572688243889308E-4,0.069355275,0.9863864148704751,0.022185095,-0.137059442,0.30153251272960774,9.889268535834093,1.3806615440318217,-0.249319466,0.00184292,0.006402035,0.002630202,-56.79404873,20.55516954421997,-52.31042694,0.3545771837234497,0.9090654253959656,1.783918023109436,9.93500042,12.366101264953613,344.0073242,160.5,-86.912287,40.3876884,-15.81412778,22.77532554626465,-4.070651908,-0.019689446,0.019687963,0.003088337,0.043560926,0.018400186,-0.040229507,9.889268535834093,1.3806615440318217,-0.249319466,Drive
118,-19,-0.144805259,0.006063664,0.070595103,0.986918109,0.032731596,-0.138028296,0.2936321887576464,9.799715153221944,1.375216737534236,-0.315527352,0.00344417,0.005998757,-0.004059466,-56.98522282,20.40388967514038,-51.98200294,0.37741756439208984,0.8949860334396362,1.7939180135726929,9.93500042,11.74741268157959,344.00933837890625,160.5,-86.9123231,40.3877902,-16.00517969,22.62355764389038,-3.74137392,-0.018088196,0.019284685391557484,-0.00360133,-0.058730255,0.008766493,0.012944654,9.799715153221944,1.375216737534236,-0.315527352,Drive
119,-20.33333333,-0.141820785,0.004832462,0.069168126,0.9874592249833264,0.02943783,-0.135644669,0.28729349924522696,9.800638541434575,1.3837919848636515,-0.257158741,0.001914087,-0.005079521,-0.007428021,-57.04671074,21.164193534851073,-52.71717514,0.36797723174095154,0.888650656,1.8039180040359497,9.93500042,11.236043930053711,344.00799560546875,160.5,-86.9123551,40.3878874,-16.06678967,23.384105453491213,-4.476667926,-0.019618279,0.008206407,-0.006969886,-0.01728306,0.047289727,0.031505478,9.800638541434575,1.3837919848636515,-0.257158741,Drive
120,-23.125,-0.141612138,0.002184489,0.069551764,0.9874727922735862,0.024243054,-0.13717224,0.28654034942099194,9.796079413404742,1.3770432943857989,-0.206343202,-0.004170663,0.003733285,-0.003217327,-57.39868065,20.435853672027587,-52.96971493,0.38621655106544495,0.8949860334396362,1.8139179944992065,9.93500042,10.735991477966309,344.0082702636719,160.5,-86.9123871,40.38798,-16.41827176,22.655765590667723,-4.729817915,-0.025703029,0.017019212979470715,-0.002759191,-0.006077229,0.020135779403945776,0.036921431862034844,9.796079413404742,1.3770432943857989,-0.206343202,Drive
121,-23.22222222,-0.140756588,0.001360632,0.070647301,0.9875189592537371,0.022798881766576212,-0.139601046,0.28475783779783154,9.825403102,1.3994789158256309,-0.215650237,-0.00317433,0.001005229,-5.49E-04,-57.19750301,21.292293643951417,-52.18781712,0.40230053663253784,0.8949860334396362,1.8239179849624634,9.93500042,10.36444378,344.0063477,160.5,-86.9124174,40.3880689,-16.21709368,23.512327632904054,-3.948651934,-0.024706696,0.014291157201158552,-9.04E-05,0.001078606,0.018671701,0.006949021,9.825403102,1.3994789158256309,-0.215650237,Drive
122,-23.75,-0.139095873,1.6742641121079662E-4,0.070252686,0.9877830755252105,0.020069812872232154,-0.139190372,0.2811916103729835,9.800020051233977,1.402742903788113,-0.189262398,-0.002502124,-0.004275931,-0.00464009,-56.63581497,21.773705558776854,-52.16951683,0.4257868826389313,0.8949860334396362,1.8339179754257202,9.93500042,9.944575309753418,345.00531005859375,160.5,-86.9124461,40.3881563,-15.65589368,23.993739490509032,-3.930229914,-0.02403449,0.009009997,-0.004181954,-0.009220618,0.027416649346168224,0.007110146,9.800020051233977,1.402742903788113,-0.189262398,Drive
123,-25.22222222,-0.137549915,-0.001593225,0.068634599,0.9881085979128347,0.015884102349287096,-0.136499424,0.27772032664817514,9.854538028680006,1.2618102975262022,-0.150033464,-0.003542024,-0.001426299,-0.002031215,-55.958349,21.294489574432372,-52.35995926,0.4113208055496216,0.888650656,1.843917965888977,9.93500042,9.623863220214844,345.0056457519531,160.5,-86.9124748,40.3882405,-14.9783058,23.51464553833008,-4.120061915,-0.02507439,0.011859629312824024,-0.00157308,0.027000519835833205,-0.088169519,0.006080483,9.854538028680006,1.2618102975262022,-0.150033464,Drive
124,-34.75,-0.135842809,-4.14E-04,0.055136202,0.9891840589856639,0.014252027,-0.109412277,0.2737331323831984,9.965406482659498,0.9143457331703705,-0.136507047,-0.004407886,-0.00197191,0.003602813,-54.46567909,21.40526569366455,-52.00298698,0.4211467206478119,0.8949860334396362,1.8539179563522339,9.93500042,9.066807746887207,345.01055908203125,160.5,-86.9125024,40.3883205,-13.48575772,23.62529962539673,-3.76247992,-0.025940252,0.011314018161004427,0.004060948,0.044589672273802526,-0.175445695,0.004888875,9.965406482659498,0.9143457331703705,-0.136507047,Drive
125,-30.11111111,-0.134238804,0.001092956,0.040296947999486646,0.9901210249048992,0.013027777443233045,-0.079589787,0.27002867738020075,10.02095244694682,0.6378905109120804,-0.137479857,-0.002450802,0.001455952,8.86618072682431E-4,-54.24803093,21.34780357,-52.22990696,0.4401414394378662,0.8949860334396362,1.8639179468154907,9.93500042,8.141274452209473,345.01947021484375,160.5,-86.9125259,40.3883907,-13.26810971,23.56795965194702,-3.989643922,-0.023983168,0.014741879549370266,0.001344754,0.035652364,-0.15850593,-0.00737148,10.02095244694682,0.6378905109120804,-0.137479857,Drive
126,-31.125,-0.133037195,0.004516842,0.032357327,0.9905718836969543,0.017594091675596907,-0.062944678,0.2675624235162457,10.05057526560663,0.5708043583967153,-0.167242041,-0.00210683,0.005583618,0.004990563,-54.35051117,21.066471652984617,-52.36191097,0.45599794387817383,0.888650656,1.8739179372787476,9.93500042,6.934506893157959,345.02947998046875,160.5,-86.9125455,40.3884513,-13.37022372,23.286261558532715,-4.122257957,-0.023639196,0.018869547,0.005448698,0.026795840957789745,-0.061068108,0.009139692,10.05057526560663,0.5708043583967153,-0.167242041,Drive
127,-32.22222222,-0.131791908,0.007231231,0.030769499633642075,0.9907729405801273,0.022480943484358418,-0.059099772,0.2651501219828152,10.015343225919283,0.5660636075414144,-0.21974855,-0.002296608,0.004421229,5.782292014241074E-4,-53.86861103,20.670215587615967,-51.99505707,0.5022029280662537,0.8949860334396362,1.883918046951294,9.93500042,5.724743843078613,345.03631591796875,160.5,-86.912561,40.3885004,-12.88868975,22.890371589660646,-3.755525918,-0.023828974,0.017707158,0.001036365,-0.010772261,-0.025898652,0.00716711,10.015343225919283,0.5660636075414144,-0.21974855,Drive
128,-33.44444444,-0.130290278,0.007790522,0.031898308,0.9909300427992367,0.023797565,-0.061226397,0.2621949396087128,9.989680299481142,0.6671764523658937,-0.242000325,-0.001632385,0.001147563,0.003163952,-54.17897907,21.391113529205324,-52.67496296,0.5403434634208679,0.888650656,2.5,9.93500042,4.405815601348877,346.0465393066406,162.6829833984375,-86.9125734,40.3885383,-13.19881379,23.611025505065918,-4.435187938,-0.023164751,0.014433490614818174,0.003622087,-0.015942407,0.050543371,-0.003766851,9.989680299481142,0.6671764523658937,-0.242000325,Drive
129,-26,-0.12911355,0.007122795,0.0422162,0.9906995996688176,0.025099880053001702,-0.08190035,0.26021985405857123,9.938995379846073,0.9401615024770348,-0.240333481,-9.44E-04,0.002381118,1.630902875811585E-4,-54.09479935,20.91445962905884,-53.04547684,0.611339808,0.9231467843055725,2.5,9.93500042,3.3341057300567627,346.0562744140625,162.9136962890625,-86.9125802,40.3885655,-13.11487773,23.134493503570557,-4.805701938,-0.022476807,0.015667046207789945,6.212257278305523E-4,-0.020322365,0.11867764794710771,0.010086335458801788,9.938995379846073,0.9401615024770348,-0.240333481,Drive
130,-36.33333333,-0.128168189,0.007220529,0.046925524,0.9906135716484589,0.026447147,-0.091246215,0.25854511515608114,9.922518628314862,0.9526599373632264,-0.260666664,-4.94E-04,0.001159424,0.002879285,-53.93778484,21.385135612487794,-53.12965702,0.6783455610275269,0.8949860334396362,2.5,9.93500042,2.332348108291626,346.0704345703125,162.7745361328125,-86.9125866,40.3885826,-12.95774176,23.605047550201416,-4.889637899,-0.022026085,0.014445352,0.00333742,-0.007629922,0.044261519,-0.003021573,9.922518628314862,0.9526599373632264,-0.260666664,Drive
131,-37.25,-0.127088859,0.00768892,0.05506228,0.9903299527672621,0.029397757849297844,-0.107311799,0.25684598317513097,9.823805939,1.1105542865771691,-0.282666695,-9.75E-04,0.003406648,0.001433142,-54.26816097,21.81689350128174,-53.11818897,0.7521840929985046,1.0737783908843994,2.5,9.93500042,1.514512062072754,346.1275329589844,163.18951416015625,-86.9125934,40.3885922,-13.28823976,24.03656150817871,-4.877925901,-0.022507372,0.016692576,0.001891277,-0.046131171,0.046423133749228254,0.011133087082551075,9.823805939,1.1105542865771691,-0.282666695,Drive
132,-39.22222222,-0.126033862,0.007560817,0.057205042033230215,0.9903459433213021,0.029583401,-0.111631443,0.25481713483634505,9.872658461042978,1.1513164899881603,-0.28988872,6.375346192637983E-5,3.172846881726992E-4,-3.71E-04,-53.85018902,21.882773609161376,-52.92469688,0.8324771523475647,0.9027181267738342,1.0288679599761963,9.93500042,0.7495574355125427,346.1697998046875,159.1999969482422,-86.9125953,40.3885989,-12.87002374,24.10292953491211,-4.685287905,-0.021468612,0.013603212786567153,8.747568444430249E-5,0.00725098,0.044933058683154656,0.002005248,9.872658461042978,1.1513164899881603,-0.28988872,Drive
133,-37.625,-0.124512477,0.005928765,0.072135777,0.9895393547502537,0.029999101534485817,-0.141770344,0.2524727652373823,9.778150697356288,1.6836266043116745,-0.290382385,4.003124110382593E-5,0.001005229,8.866180772034144E-4,-54.09919098,22.053451499938966,-53.03022682,45,0.2973213791847229,1.0388679504394531,9.93500042,0.7426875233650208,346.05706787109375,159.1999969482422,-86.9125932,40.388599,-13.11926978,24.273607482910155,-4.790573926,-0.021492334,0.014291157331136823,0.001344754,-0.051314937,0.2801714846231405,0.004517835,9.778150697356288,1.6836266043116745,-0.290382385,Drive
134,-44.22222222,-0.122933594,0.003720022,0.091117985,0.9882131317286815,0.030248096,-0.180147192,0.25026016342408447,9.744697681908468,1.874971105057059,-0.286514377,-4.30E-05,0.001266174,1.037847250699997E-4,-54.06088303,22.012459526062013,-53.0299828,45,0.1063014566898346,1.048867941,9.93500042,0.3766293227672577,353.3675842285156,159.1999969482422,-86.9125915,40.3885982,-13.08071774,24.232493457794188,-4.789841909,-0.021575362,0.014552101746056844,5.619201630589019E-4,-0.015937898,0.096601479,0.008748316,9.744697681908468,1.874971105057059,-0.286514377,Drive
135,-45.5,-0.121871038,0.003298971,0.095101719,0.9879736744084404,0.030237242127361806,-0.18822134,0.24832333045677074,9.734911464950413,1.8713731557420157,-0.288140567,-7.86E-05,0.001135701,8.006250029158535E-5,-54.0018351,21.991475620269775,-53.17174698,0,0.23430748283863068,1.0588679313659668,9.93500042,0.073139697,0,159.1999969482422,-86.9125904,40.3885963,-13.02203582,24.21138753890991,-4.93160593,-0.021610945,0.014421629529554867,5.381979382804875E-4,-0.009520484,0.014510611885959663,0.006524969,9.734911464950413,1.8713731557420157,-0.288140567,Drive
136,-44.22222222,-0.120958448,0.003321208,0.095892457,0.9880094007380957,0.030309693182556375,-0.189819713,0.2465259777110757,9.699421589191143,1.8709284663200378,-0.286954654,4.003124618993222E-5,0.001100118,-1.48E-05,-54.22009304,22.099323596954346,-53.1334388,0,0.086023256,1.0688680410385132,9.93500042,0.061683330684900284,0,159.1999969482422,-86.9125894,40.3885955,-13.24004975,24.319357471466063,-4.893541932,-0.021492334,0.014386046198603598,4.433090442529364E-4,-0.01517619,0.004004672,0.006743048,9.699421589191143,1.8709284663200378,-0.286954654,Drive
137,-47.625,-0.120032541,0.003296071,0.096016406,0.9881103652194866,0.030110852,-0.190101277,0.24464004320427052,9.696835323444848,1.8655682408693925,-0.286212369,-1.50E-04,8.154514085194005E-4,9.192361098542376E-5,-53.95974499,21.97842161178589,-53.01827114,0,0.086023256,1.078868032,9.93500042,0.040972795,0,159.1999969482422,-86.9125891,40.3885955,-12.97982376,24.198211517333984,-4.778617897,-0.021682112,0.014101379442489842,5.500590467138343E-4,-0.004550295,-0.001048541,0.006768795,9.696835323444848,1.8655682408693925,-0.286212369,Drive
138,-47.66666667,-0.119187231,0.003429269,0.096000324,0.9882138006895491,0.030210268,-0.190062484,0.2429377942988016,9.714607304,1.868855469435164,-0.287025464,-1.02E-04,0.001052674,9.192361324591544E-5,-54.18849518,22.061503524780274,-53.1281929,0,0.086023256,1.0381779670715332,9.93500042,0.027839217334985733,0,158.89999389648438,-86.9125889,40.3885954,-13.20845174,24.28153760910034,-4.888173914,-0.021634667,0.014338601688013493,5.500590523650634E-4,0.013171612637714275,1.0387990081194535E-4,0.006481445,9.714607304,1.868855469435164,-0.287025464,Drive
139,-47.66666667,-0.118360521,0.003464684,0.095874917,0.9883252110296082,0.030089057457533853,-0.189829079,0.24124675699808065,9.758258939946739,1.8747271843326903,-0.285770976,-1.14E-04,0.00112384,1.3936806280274414E-4,-54.04636497,22.032101516723632,-53.11147907,0,0.1140175461769104,1.048177958,9.93500042,0.043190788477659225,0,158.89999389648438,-86.9125884,40.3885951,-13.06632177,24.25225751876831,-4.872069912,-0.021646528,0.014409768322790131,5.975034990962775E-4,0.019850666083178474,0.003338412,0.006627915,9.758258939946739,1.8747271843326903,-0.285770976,Drive
140,-48.375,-0.117613266,0.003498591,0.095887377,0.9884130856365834,0.030015188585785987,-0.189868428,0.2397285385907275,9.746434128,1.8746516727706761,-0.28946475,-6.38E-05,4.032777986281271E-4,1.4826388423810305E-4,-54.02281906,21.981715507507325,-53.17101498,0,0.086023256,1.0581779479980469,9.93500042,0.048640288,0,158.89999389648438,-86.9125878,40.3885949,-13.04289777,24.20150556564331,-4.931117907,-0.021670251,0.014208129489595451,6.805312773438839E-4,-0.006006102,-0.001949759,0.004349068,9.746434128,1.8746516727706761,-0.28946475,Drive
141,-48.77777778,-0.116847523,0.00337336,0.095915987,0.9885015625220078,0.029621413371597346,-0.189978594,0.2381438660220458,9.711563999,1.8657308573861724,-0.287815329,2.2387561889795158E-12,-1.41E-04,2.2319415830469763E-4,-54.20935703,22.123357582092286,-53.13417088,0,0.086023256,1.0681779384613037,9.93500042,0.045328740030527115,0,158.89999389648438,-86.9125876,40.3885945,-13.22955783,24.343757495880126,-4.894395909,-0.021685077,0.014213946012135308,8.340414306775739E-4,-0.016153097,-0.004317661,-5.46E-04,9.711563999,1.8657308573861724,-0.287815329,Drive
142,-46.625,-0.116090373,0.00340749,0.096011427,0.9885813935289105,0.029566497279747018,-0.190183474,0.23661204101969896,9.706336975097656,1.8673454280038482,-0.28642145,5.040972525235808E-5,-8.75E-05,9.340622566314866E-5,-53.98121704,21.997087535858153,-53.06243477,0,0.086023256,1.0781779289245605,9.93500042,0.051899854093790054,0,158.89999389648438,-86.9125873,40.388594,-13.00117377,24.216999492645265,-4.822049904,-0.021634667,0.014267435008027022,7.042534981664379E-4,-0.002799182,-0.002505549,6.591590862829709E-4,9.706336975097656,1.8673454280038482,-0.28642145,Drive
143,-46.44444444,-0.11539081,0.00347111,0.095895194,0.9886743507338959,0.029529852919208194,-0.189957522,0.2351873741277213,9.717697115777765,1.8706704088785115,-0.287350703,1.097152855030252E-4,-1.35E-04,-1.91E-04,-54.2043549,22.233279571533203,-53.15247089,0,0.1140175461769104,1.0376579761505127,9.93500042,0.038778867572546005,0,159.39999389648438,-86.9125872,40.3885938,-13.22431174,24.45343553543091,-4.912817912,-0.021575362,0.014219990642108386,4.1958682456062833E-4,0.007740706,0.002937752,-6.02E-04,9.717697115777765,1.8706704088785115,-0.287350703,Drive
144,-45.875,-0.114701985,0.003503745,0.095783507,0.9887652165681413,0.029434351142025687,-0.189747594,0.23377930004041172,9.757727484101231,1.8745994012332656,-0.286932538,3.854861455851967E-5,-6.38E-05,-1.08E-04,-54.01696281,22.253409633636476,-53.133195,0,0.1140175461769104,1.0476579666137695,9.93500042,0.019264437,0,159.39999389648438,-86.9125873,40.3885937,-13.03691978,24.473199558258056,-4.893541894,-0.021646528,0.014291157294968956,5.026145988523743E-4,0.017201516234758987,0.003108599,-2.12E-04,9.757727484101231,1.8745994012332656,-0.286932538,Drive
145,-43.66666667,-0.114035662,0.003577479,0.095726923,0.9888475022269684,0.029439668469492673,-0.18963734,0.2324292318334857,9.758450545153572,1.872961596377845,-0.288698118,9.785417819992431E-5,-4.45E-06,1.0378436113083825E-5,-54.07674297,22.426649570465088,-53.14527298,0,0.086023256,1.0576579570770264,9.93500042,0.009127838,0,159.39999389648438,-86.9125872,40.3885938,-13.09669976,24.64668348312378,-4.905497899,-0.021587223,0.014350463,6.212257142676022E-4,-6.01E-04,-9.85E-04,-0.001380738,9.758450545153572,1.872961596377845,-0.288698118,Drive
146,-44.5,-0.113313399,0.003603087,0.095870796,0.9889164885270942,0.029385805,-0.189939898,0.23097104774516763,9.717830795508165,1.871690598817972,-0.284653863,3.854861455851967E-5,-1.11E-04,4.5961767064353214E-5,-54.20167107,22.69700153,-53.05474888,0,0.1140175461769104,1.0676579475402832,9.93500042,0.007447286,0,159.39999389648438,-86.9125871,40.3885939,-13.22174976,24.91703556060791,-4.814973927,-0.021646528,0.014243712892882454,6.568090406978883E-4,-0.017996557,-0.001034622,0.001582347,9.717830795508165,1.871690598817972,-0.284653863,Drive
147,-43.22222222,-0.112639511,0.003702146,0.096010571,0.9889795548707536,0.029487909224716204,-0.190215982,0.22962522145035197,9.706685371769284,1.8674528783964879,-0.286374988,6.227083933693402E-5,2.0905211002755802E-4,2.2387845459782962E-4,-53.88874104,22.684069633483887,-53.16052296,0,0.086023256,1.077657938,9.93500042,0.005074576,0,159.39999389648438,-86.9125871,40.3885939,-12.90894177,24.903859634399414,-4.920259929,-0.021622806,0.014563962826234044,8.34725725970873E-4,-0.007709105,-0.003012185,-5.04E-05,9.706685371769284,1.8674528783964879,-0.286374988,Drive
148,-41.55555556,-0.111979084,0.003836238,0.095938943,0.9890609863892342,0.029612367900395856,-0.190061996,0.22829782152638853,9.719346453842608,1.8698195681988614,-0.287722403,1.3343750802094785E-4,-4.00E-05,-1.56E-04,-54.08516102,22.97869955062866,-53.1169688,0,0.086023256,1.035588026046753,9.93500042,0.003915753,0,158.89999389648438,-86.9125872,40.3885938,-13.10523972,25.198855476379393,-4.876583929,-0.02155164,0.014314879491491225,4.55170146469931E-4,0.007247554,9.703508858541841E-4,-1.52E-04,9.719346453842608,1.8698195681988614,-0.287722403,Drive
149,-41.75,-0.111265148,0.003856125,0.095833116,0.9891517318568184,0.029488498164178097,-0.18986761,0.22683723010484455,9.762518873,1.8737282243747155,-0.286467915,-4.45E-05,1.2602433234507453E-4,-8.45E-05,-53.86739094,22.997487564086914,-52.94470516,0,0.086023256,1.0455880165100098,9.93500042,0.003536598,0,158.89999389648438,-86.9125872,40.3885938,-12.88746982,25.217399520874025,-4.704441891,-0.021729556,0.014480935057028405,5.263368225005428E-4,0.023852311291740935,-0.001053794,6.568964245249924E-4,9.762518873,1.8737282243747155,-0.286467915,Drive
150,-42,-0.110550082,0.003939402,0.095782713,0.9892364671597114,0.029505471,-0.189769472,0.2253906039091257,9.755959001559656,1.875816141517417,-0.287606247,1.1747062783867407E-4,1.4096477389102802E-4,-7.05E-05,-53.93424706,23.168897552490236,-53.13868523,0,0.086023256,1.0555880069732666,9.93500042,0.001870427,0,158.89999389648438,-86.9125872,40.3885938,-12.95420368,25.38917552947998,-4.898421912,-0.021567606,0.014495875516261619,5.40364864998712E-4,-0.00269822,0.002143574,4.92339667219382E-4,9.755959001559656,1.875816141517417,-0.287606247,Drive
151,-41.875,-0.109912814,0.003995783,0.095806196,0.9893049719264206,0.029500852,-0.189822643,0.22410315709206666,9.718881838530013,1.870208695096877,-0.288837505,1.6902084575369232E-4,-1.94E-04,-1.08E-04,-54.17434303,23.197689476013185,-53.09927879,0,0.086023256,1.0655879974365234,9.93500042,7.55171466153115E-4,0,158.89999389648438,-86.9125872,40.3885938,-13.19442177,25.41747938156128,-4.85925992,-0.021516056,0.014160685033257146,5.026145965918826E-4,-0.018973749,-0.001529721,-0.001548724,9.718881838530013,1.870208695096877,-0.288837505,Drive
152,-42.55555556,-0.10933185,0.004108054,0.095914067,0.9893584413435853,0.029639407323257438,-0.190030152,0.22294740653732448,9.707939944220978,1.8685360371487811,-0.287652709,1.4529862097527796E-4,5.485765800983148E-5,2.1201733768763905E-4,-53.84079502,23.04506752,-53.16869686,0,0.086023256,1.0755879878997803,9.93500042,2.344570093555376E-4,0,158.89999389648438,-86.9125872,40.3885938,-12.86075173,25.265101509094237,-4.92831193,-0.021539778,0.014409768377041932,8.228646096258053E-4,-0.006811207,-8.60E-04,3.020963043842501E-4,9.707939944220978,1.8685360371487811,-0.287652709,Drive
153,-42.375,-0.10880818,0.004235377,0.095859862,0.9894208890720478,0.029781579,-0.189909297,0.22189953387940972,9.715257783537929,1.8675167630019698,-0.288349648,-8.90E-06,3.276632220520484E-4,-1.79E-04,-54.02769905,23.24478167,-53.21993702,0,0.086023256,1.0356279611587524,9.93500042,0.006395533,0,158.89999389648438,-86.9125873,40.3885937,-13.04777777,25.46505952835083,-4.980527897,-0.021693973,0.014682573944474886,4.3144792734274584E-4,0.002876115,-2.18E-04,9.167569065556942E-4,9.715257783537929,1.8675167630019698,-0.288349648,Drive
154,-43,-0.10830828,0.004268088,0.095737729,0.9894874159572193,0.029722171681887895,-0.189673253,0.2208773226124569,9.761540274018223,1.8716548403489937,-0.288837505,5.0409726382603926E-5,2.3277434158744742E-4,-1.79E-04,-53.9148489,23.08764543533325,-53.18480106,0,0.086023256,1.0456279516220093,9.93500042,0.010819323360919952,0,158.89999389648438,-86.9125874,40.3885936,-12.93504979,25.30743541717529,-4.944659934,-0.021634667,0.014587685013714345,4.3144792451713126E-4,0.021840262181550555,0.00105165,6.634020110935841E-4,9.761540274018223,1.8716548403489937,-0.288837505,Drive
155,-41.875,-0.107775042,0.00425696,0.095685601,0.9895507340292329,0.029584317,-0.189587626,0.21978403989551137,9.761499854234549,1.876272053672717,-0.287897979,1.4529862323576964E-4,-5.19E-05,1.0378442894558884E-5,-54.00378693,23.07410352706909,-53.14307709,0,0.086023256,1.0556279420852661,9.93500042,0.006604602,0,158.89999389648438,-86.9125874,40.3885936,-13.0236218,25.294259471893312,-4.903179893,-0.021539778,0.014303018438439924,6.212257176583398E-4,0.001141206,0.00170745,0.00113152,9.761499854234549,1.876272053672717,-0.287897979,Drive
156,-41.55555556,-0.10729083,0.004268529,0.095777509,0.9895944120814499,0.029534828,-0.189783039,0.21880555977520433,9.721344401535479,1.868242742945847,-0.287164853,1.5715973392960806E-4,7.413215234477833E-6,-8.45E-05,-54.25425308,23.138397636413575,-53.25141273,0,0.086023256,1.065627932548523,9.93500042,0.002931193,0,158.89999389648438,-86.9125874,40.3885936,-13.2740877,25.358553524017335,-5.011515918,-0.021527917,0.014362324,5.263368168493136E-4,-0.018750311,-0.002460576,-4.06E-05,9.721344401535479,1.868242742945847,-0.287164853,Drive
157,-40.77777778,-0.106853157,0.00439363,0.095848915,0.9896343037920091,0.029718295933262816,-0.189911322,0.21794202518694608,9.712051836032312,1.8676242052930072,-0.288326417,1.482639091035116E-5,3.27663232224261E-4,-2.52E-05,-53.96608902,22.956007480621338,-53.09976681,0,0.10000000149011612,1.0756280422210693,9.93500042,0.001013968,0,158.89999389648438,-86.9125874,40.3885936,-12.98604573,25.17628538131714,-4.859503908,-0.021670251,0.014682573953516853,5.856423810558412E-4,-0.003969905,-7.17E-04,6.963507932366676E-4,9.712051836032312,1.8676242052930072,-0.288326417,Drive
158,-41.375,-0.106376406,0.004440785,0.095813038,0.9896889253727441,0.029712620272653773,-0.189843701,0.21697631825521155,9.718394010969735,1.8676387256788975,-0.286421452,5.040972525235808E-5,6.671877831075956E-5,-1.68E-04,-54.30988506,23.075567607879638,-53.125387,0,0.1063014566898346,1.0358179807662964,9.93500042,0.006598631,0,159.39999389648438,-86.9125875,40.3885935,-13.32996376,25.29560148239136,-4.885489922,-0.021634667,0.014421629475303066,4.4330904538318226E-4,0.004118216,-5.63E-04,0.001880566,9.718394010969735,1.8676387256788975,-0.286421452,Drive
159,-40.55555556,-0.105926182,0.004433145,0.095704257,0.9897477806193157,0.029585215,-0.189641649,0.2160490943679532,9.762562474,1.8737340378529816,-0.287257777,-8.01E-05,1.7346878529264076E-4,-1.32E-04,-54.12590893,22.912819538116455,-53.14929882,0,0.1063014566898346,1.0458179712295532,9.93500042,0.007474947,0,159.39999389648438,-86.9125876,40.3885935,-13.14610975,25.132853469848634,-4.909157934,-0.021765139,0.014528379522408675,4.788923831159267E-4,0.017666946,0.003974474,0.001684352,9.762562474,1.8737340378529816,-0.287257777,Drive
160,-41.625,-0.105538891,0.004454916,0.095665899,0.9897927659062239,0.029545354603144985,-0.189571919,0.21526090614497662,9.764139296,1.874207371646918,-0.288581962,-1.41E-04,1.409647761297842E-4,-1.76E-04,-54.15604294,22.89207950592041,-53.1543008,0,0.1140175461769104,1.055817962,9.93500042,0.007825591,0,159.39999389648438,-86.9125876,40.3885934,-13.17599976,25.11186944961548,-4.915013914,-0.021826042,0.014495875534171669,4.346413115854375E-4,0.003577076,-4.07E-04,-4.11E-04,9.764139296,1.874207371646918,-0.288581962,Drive
161,-41,-0.105112619,0.004567375,0.095705777,0.9898337530858309,0.029698370802171022,-0.189640086,0.2144160879757798,9.725247262751015,1.8697643928157472,-0.28874458,-5.63E-05,7.85798873092292E-5,-2.15E-04,-54.3051268,22.994559478759765,-53.06609482,0,0.1063014566898346,1.065817952156067,9.93500042,0.004532741,0,159.39999389648438,-86.9125876,40.3885934,-13.32532778,25.21471538543701,-4.826197939,-0.021741417,0.014433490555480268,3.958646009124598E-4,-0.018792819,-0.001326949,6.530160464129402E-4,9.725247262751015,1.8697643928157472,-0.28874458,Drive
162,-40.875,-0.104730065,0.004682498,0.095762138,0.9898683145208266,0.029868871,-0.189739436,0.21366212017906522,9.711145780618908,1.8681352960253226,-0.28821026,-5.63E-05,1.378854469947734E-4,-1.91E-04,-53.97536091,23.02481550216675,-53.17382088,0,0.086023256,1.0758179426193237,9.93500042,0.004833721,0,159.39999389648438,-86.9125877,40.3885934,-12.99519576,25.244239444732667,-4.933923922,-0.021741417,0.014492796191457406,4.195868211698908E-4,-0.00900213,6.24242338162024E-4,0.002136786,9.711145780618908,1.8681352960253226,-0.28821026,Drive
163,-30.22222222,-0.104214893,0.004679444,0.095815747,0.9899174790937924,0.029774757879740984,-0.189862684,0.21261525269850945,9.723138975865632,1.868599926,-0.288378685,1.482639882207206E-5,3.751076636971562E-4,-1.20E-04,-54.91720097,23.367879581451415,-52.78476284,0,0.086023256,1.035248041152954,9.93500042,0.00293289,0,158.89999389648438,-86.9125877,40.3885934,-13.93740175,25.587913608551027,-4.544499927,-0.021670251,0.014730018391771224,4.907534864631672E-4,0.007454113,6.862728341111859E-4,9.255241421819891E-4,9.723138975865632,1.868599926,-0.288378685,Drive
164,-24.125,-0.102945681,0.003807333,0.1067757142834293,0.9888808478429479,0.030188967121168246,-0.21199911,0.21067412197589874,9.643522466,2.4348451338925408,-0.288523883,-6.82E-05,0.001193524,0.001742101,-55.68494694,23.71228563308716,-52.81123692,0,0.10000000149011612,1.045248031616211,9.93500042,0.001315099,0,158.89999389648438,-86.9125877,40.3885934,-14.70478177,25.932075576782225,-4.571461902,-0.021753279,0.015548435053381236,0.002352948,-0.055726866,0.3460534544824396,0.004352106,9.643522466,2.4348451338925408,-0.288523883,Drive
165,-26.55555556,-0.100466715,8.39144877035615E-4,0.1418781930092469,0.9847526764406741,0.0314134,-0.28303582,0.20781699068916654,9.539746761322021,3.066661059856415,-0.301521536,2.668753212082733E-5,1.616076361704437E-4,-0.001650177,-55.45766098,23.540265579223632,-52.83551487,3.6351125240325928,0.6868041753768921,1.0552480220794678,9.93500042,0.8542799353599548,345.9123840332031,158.89999389648438,-86.9125896,40.3886,-14.47773977,25.760055503845216,-4.595861917,-0.02165839,0.014516518,-0.00103933,-0.045244143,0.2759296037618396,9.499571277099906E-4,9.539746761322021,3.066661059856415,-0.301521536,Drive
166,-24.5,-0.099118835,7.105490085141532E-5,0.15467832476189994,0.9829777699072384,0.032339891039052056,-0.308970408,0.2060294291637476,9.486171129837777,3.048726114254553,-0.306911446,-9.93E-04,-1.59E-04,-1.79E-04,-55.55623688,23.946281566619874,-52.26601887,2.620180606842041,0.6942622065544128,1.0652480125427246,9.93500042,1.678318977355957,343.74566650390625,158.89999389648438,-86.9125952,40.3886118,-14.57643772,26.16655954360962,-4.02599993,-0.022678446,0.014196268380031858,4.3144796633622746E-4,-0.02104849,0.018732561648470685,-6.42E-04,9.486171129837777,3.048726114254553,-0.306911446,Drive
167,-21.77777778,-0.098617842,0.001616963,0.1450115144252777,0.9844911214217399,0.033166874,-0.289227539,0.2045013793174503,9.571874266689264,2.623172471,-0.320719544,-0.001586424,0.002521969,0.005288573,-55.61504101,24.09194948196411,-52.06215706,1.5708352327346802,0.6801470518112183,1.0752480030059814,9.93500042,2.7043521404266357,343.9936523,158.89999389648438,-86.9126037,40.3886341,-14.63511974,26.31198341369629,-3.821283941,-0.023271501,0.01687688,0.00589942,0.037356321,-0.215156483,-0.005482885,9.571874266689264,2.623172471,-0.320719544,Drive
168,-26.875,-0.098831767,0.005305124,0.1280898328834367,0.9867997846557098,0.036987908112192616,-0.25449338,0.20436789153270352,9.651955419373744,2.319914144219704,-0.355761037,8.569653880628712E-4,0.004004608,0.00269099,-56.61251266,22.687363605499268,-50.84911106,1.1679255962371826,0.6868041753768921,1.0344380140304565,9.93500042,3.5252373218536377,343.6800842285156,158.89999389648438,-86.9126147,40.3886665,-15.63246971,24.907641525268556,-2.609457954,-0.020828112,0.018359518738223907,0.003301837,0.046765226,-0.177352231,0.001905551,9.651955419373744,2.319914144219704,-0.355761037,Drive
169,-27.55555556,-0.098090785,0.007367447,0.1185555812513944,0.9880615565383318,0.038897058,-0.2349924,0.2024954310030613,9.668167929,2.2418221825534856,-0.366656512,0.001414438,0.00135958,0.001042295,-56.13085697,21.152115516662597,-50.6343911,0.9600683450698853,0.6801470518112183,1.0444380044937134,9.93500042,3.9889395236968994,345.25982666015625,158.89999389648438,-86.9126271,40.3887041,-15.15069171,23.37166151046753,-2.393761973,-0.02027064,0.015714491,0.001653142,0.016567452,-0.070056979,0.006758015,9.668167929,2.2418221825534856,-0.366656512,Drive
170,-25.22222222,-0.097395298,0.007486873,0.10782536670852166,0.9893403202295303,0.036662421798190244,-0.213519994,0.2001928472175048,9.739821952523537,2.022344586918655,-0.370510001,0.002596101,-0.004804549,-0.001856036,-56.74110092,19.915279655456544,-51.40213703,0.8832152485847473,0.6942622065544128,1.0544379949569702,9.93500042,4.367061138153076,345.9907227,158.89999389648438,-86.9126381,40.3887444,-15.76069171,22.135191593170166,-3.161995909,-0.019088977,0.009550362,-0.001245189,0.025699569628788874,-0.083796199,-0.01258539,9.739821952523537,2.022344586918655,-0.370510001,Drive
171,-14.25,-0.095060436,0.003582893,0.1280873799063627,0.9870859587076798,0.032461895,-0.254990684,0.1961650009294158,9.526094131099368,3.0212144481325613,-0.342751518,0.007036605,-0.011153893,-0.001638316,-57.00218082,21.14943161010742,-53.06243507,0.8733745813369751,0.7286288738250732,1.064437985420227,9.93500042,4.657786846160889,344.9940490722656,158.89999389648438,-86.9126494,40.3887871,-16.02225968,23.369099578857423,-4.8216839,-0.014648473,0.003201018,-0.001027469,-0.083069496,0.515306528,-0.030683009,9.526094131099368,3.0212144481325613,-0.342751518,Drive
172,-16.22222222,-0.081687852,0.004149596,0.15189180284449197,0.9849350319325345,0.034547884,-0.303269972,0.17078172914611484,9.454550488481244,3.187713081396899,-0.881981649,0.079009831,0.007622247,0.003319629,-57.10148903,22.091149578094484,-52.03385296,0.7492949366569519,0.9183136820793152,1.0744379758834839,9.93500042,5.855609893798828,342.9641113,158.89999389648438,-86.9126678,40.3888404,-16.12144574,24.310939483642578,-3.793101947,0.057324753441278214,0.021977158,0.003930476,-0.029892889,0.21779796683672561,-0.554063705,9.454550488481244,3.187713081396899,-0.881981649,Drive
173,-14.25,-0.006014466,0.053442213051382775,0.1567013040908332,0.9854513279442648,0.11299026634507967,-0.314111073,0.030091757,9.447168674283814,2.923939244261066,-2.199910034,0.25804145272495677,0.056181638567138786,-0.006857205,-58.34796291,19.76765968322754,-48.98885521,0.7945573925971985,1.0346980094909668,1.0844379663467407,9.93500042,6.960769176483154,329.0467529296875,158.89999389648438,-86.9126999,40.3889002,-17.36804176,21.987937564849855,-0.748957979,0.23635637586556593,0.070536549,-0.006246358,0.025368848,-0.156825531,-1.131191355,9.447168674283814,2.923939244261066,-2.199910034,Drive
174,-23.11111111,0.12334888030603094,0.096394792,0.15508323690844972,0.9745722141080689,0.158804072,-0.332643186,-0.225158211,9.670502699694588,2.8164277516522453,-2.543750512,0.2913948991923656,0.045862471,0.011574962714379564,-58.26878506,12.21354169368744,-45.3691151,0.845041037,1.023425579071045,1.0944379568099976,9.93500042,8.117285728,315.1108093261719,158.89999389648438,-86.9127668,40.38896,-17.28861961,14.433575716018677,2.8704159406013785,0.269709821,0.060217382,0.012185809704321392,0.2796783447265625,-0.469478419,-1.039735558,9.670502699694588,2.8164277516522453,-2.543750512,Drive
175,-25.625,0.24243062228253745,0.11491189694520339,0.13763197685040315,0.9527772641876369,0.16213917486297275,-0.324553605,-0.471868878,9.569884217702425,2.387456047420318,-2.119802156,0.2339159528028618,0.055600445,-0.014958344,-56.98241692,6.491131887435913,-42.01838497,0.9014369249343872,0.9986490607261658,1.1044379472732544,9.93500042,8.849579811096191,299.1202392578125,158.89999389648438,-86.9128585,40.3890094,-16.00249571,8.711165843,6.221877899169922,0.2122308750754421,0.069955355,-0.014347497,0.15789776403927108,-0.816338283,-0.578687536,9.569884217702425,2.387456047420318,-2.119802156,Drive
176,-16.77777778,0.3579803222012751,0.1394915828137722,0.10660325113720107,0.9162146339138735,0.18882612927446088,-0.299996573,-0.716373309,9.621354029016587,2.244766735,-2.672158546,0.2797117048096888,0.049349638,-0.003642844,-55.24599083,4.083827926684171,-39.72002735,0.9591440558433533,1.009554386138916,1.1144379377365112,9.93500042,9.162982940673828,285.0484313964844,158.89999389648438,-86.9129667,40.3890377,-14.26606974,6.303983888626099,8.519747862815857,0.2580266263589118,0.063704549,-0.003031997,0.20161406507769836,-0.723940817,-0.872183147,9.621354029016587,2.244766735,-2.672158546,Drive
177,-14.75,0.4821915241699774,0.16438107640997876,0.083832699,0.8553506986608783,0.21232248119358876,-0.307945261,-0.993666438,9.527984591363703,2.6506086217546927,-2.66693151,0.2846340651361688,0.045174527,-0.004532427,-54.20789291,-3.498715928,-38.92714928,1.0223087072372437,1.0625441074371338,1.1244380474090576,9.93500042,9.644658088684082,268.0057067871094,158.89999389648438,-86.9130853,40.3890453,-13.22809368,-1.278559984,9.312625827789306,0.26294899,0.059529438,-0.00392158,0.08102179,-0.430201113,-0.631197887,9.527984591363703,2.6506086217546927,-2.66693151,Drive
178,-15.88888889,0.583861052,0.1502389876009191,0.075705649,0.7936518892501164,0.15802597428120455,-0.299259989,-1.244479711,9.480647911,2.7798152432858365,-0.903296358,0.1326932232573773,0.007325719,-0.006643705,-53.78162495,-8.900387826,-39.58985321,1.0960304737091064,1.0463746786117554,1.1344380378723145,9.93500042,10.744794845581055,257.0006408691406,158.89999389648438,-86.9132128,40.3890319,-12.80145974,-6.680231872,8.649677815437316,0.11100814542145405,0.021680629903165785,-0.006032858,0.006530215,-0.183156655,0.5849478881335953,9.480647911,2.7798152432858365,-0.903296358,Drive
179,-10.77777778,0.6267062396957324,0.10340583618157186,0.10284679454679672,0.7653885202912184,0.030690308,-0.291002268,-1.367700279,9.555478795060834,2.836946792972898,0.1927993629643133,0.021544113,0.002220195,0.001021994,-53.74099892,-10.34376984,-40.2410891,1.0606286525726318,0.9104943871498108,1.1444380283355713,9.93500042,11.462697982788086,253.9967041015625,158.89999389648438,-86.9133482,40.3890002,-12.7610778,-8.123735857,7.998441886901856,-1.41E-04,0.016575106,0.001632842,0.040953389,-0.01665045,0.48724653367669535,9.555478795060834,2.836946792972898,0.1927993629643133,Drive
180,-15.75,0.6354561089311989,0.091159247,0.11256039504287313,0.7584253468559784,-0.004986226,-0.290662202,-1.39553839,9.576755736638042,2.863169096048596,0.36734764169883527,0.002126104,7.665243759317305E-4,-5.83E-04,-53.5512891,-10.7063538,-40.29550144,1.0048046112060547,0.6228964328765869,1.1544380187988281,9.949999809265137,12.891120910644531,254.99049377441406,158.89999389648438,-86.9134889,40.3889631,-12.57112383,-8.485953817,7.944639854431152,-0.019558973,0.015121435097224323,2.817010158871852E-5,0.047220267,0.012511331,0.3198429665130391,9.576755736638042,2.863169096048596,0.36734764169883527,Drive
181,-18.88888889,0.6420371613456207,0.086882157,0.11473573585158413,0.7530373340671502,-0.017185117,-0.288341486,-1.414493514,9.596072558060433,2.8202667190033255,0.22127801682619216,0.010867743590141385,0.004301136,0.001338823,-53.57642086,-10.9531598,-40.13055698,0.8699517846107483,0.5768882036209106,1.164438009262085,9.961000442504883,14.073811531066895,254.99473571777344,158.89999389648438,-86.9136435,40.3889279,-12.5960118,-8.733125858,8.109217820167542,-0.010817334,0.018656046514611835,0.00194967,0.028985134606222505,-0.01781303,0.056827729,9.596072558060433,2.8202667190033255,0.22127801682619216,Drive
182,-15.625,0.6500459267097769,0.08615984,0.1118154023023485,0.746661766,-0.017390359,-0.282748594,-1.435143109,9.617285617346903,2.7453138851425023,0.1657116801423717,0.013726271462888972,0.00498908,5.678506986265188E-4,-53.57629883,-11.36100577,-40.10835312,0.7476298213005066,0.28319603204727173,1.1744379997253418,9.967000007629395,14.719240188598633,253.0010223388672,158.89999389648438,-86.9138092,40.3888887,-12.59613375,-9.141093826,8.131299834251404,-0.007958806,0.019343991,0.001178698,0.008749545,-0.046765626,-0.001401229,9.617285617346903,2.7453138851425023,0.1657116801423717,Drive
183,-13.66666667,0.657820603,0.085446028,0.1062023624488451,0.7407299372756365,-0.013637917,-0.273139944,-1.454244673,9.597239975790375,2.6344715877644065,0.086475564,0.017842077288451125,0.001454469,-0.001033399,-53.55141094,-11.73798578,-40.13067921,0.8014889359474182,0.5234500765800476,1.1844379901885986,9.979999542236328,15.547072410583496,251.00003051757812,158.89999389648438,-86.9139846,40.3888458,-12.57161174,-9.517829857,8.109827867,-0.003843,0.015809379563241906,-4.23E-04,-0.001582081,-0.054830396,-0.04443469,9.597239975790375,2.6344715877644065,0.086475564,Drive
184,-12.625,0.6670665023396316,0.085691039,0.10088925143179384,0.7331323212790257,-0.009272735,-0.265369999,-1.477739096,9.679608959418077,2.5669292486630955,0.074252279,0.01733205,0.010101219413132922,0.004102462,-53.48272484,-12.33297978,-40.2715892,0.7794634103775024,0.7849203944206238,1.1944379806518555,9.996999740600586,16.067453384399414,248.00465393066406,158.89999389648438,-86.9141613,40.3887988,-12.50280378,-10.1129458,7.9681858587265015,-0.004353028,0.024456130159856045,0.004713309,0.027954675618884633,-0.055839682,-0.015168381,9.679608959418077,2.5669292486630955,0.074252279,Drive
185,-15.22222222,0.6802852379465566,0.080948074,0.087240659,0.7231478210791801,-0.001566606,-0.238592829,-1.509908379,9.729733726353322,2.0560589936173077,-0.040930627,0.020617577473370775,0.001561219,-0.001128288,-54.13847496,-13.82137976,-40.16813335,0.8217806816101074,0.5448853373527527,1.2044379711151123,10.008000373840332,16.468936920166016,246.00274658203125,158.89999389648438,-86.9143447,40.3887454,-13.15818771,-11.60146776,8.072007846832275,-0.0010675,0.015916129661773703,-5.17E-04,0.067571566,-0.289283145,-0.057262357,9.729733726353322,2.0560589936173077,-0.040930627,Drive
186,-9.625,0.6931542395388038,0.08315623,0.080758608,0.7113824932320604,0.006517254,-0.232289774,-1.544062873,9.644573693136566,2.470031823926759,-0.101163546,0.018707938474214193,0.018012580971540973,-3.34E-04,-54.68344917,-15.6052637,-40.27890926,0.6309967041015625,0.16401219367980957,1.2144379615783691,9.996000289916992,17.16962242126465,245.0006561279297,158.89999389648438,-86.9145351,40.3886893,-13.70364973,-13.38535172,7.960743808746338,-0.002977139,0.032367492,2.772535013206737E-4,-0.0177941,0.17940519388439585,-0.040609798,9.644573693136566,2.470031823926759,-0.101163546,Drive
187,-12.44444444,0.7017803307875846,0.091370375,0.085442235,0.7013066382084078,0.008486969,-0.250695831,-1.570407172,9.719294224,2.550342393152922,-0.069856482,0.018897716254357575,-0.00397792,0.005490212,-54.47726898,-16.35117163,-40.27366329,0.5801253318786621,0.14866068959236145,1.224437952041626,9.991000175476074,17.899654388427734,244.0006103515625,158.89999389648438,-86.9147297,40.3886296,-13.49722578,-14.13138173,7.966477856636048,-0.002787361,0.010376990300340994,0.006101059,0.030988027,0.069809627,0.016755725537399645,9.719294224,2.550342393152922,-0.069856482,Drive
188,-15.25,0.713718647,0.095846043,0.081072958,0.6890540904211766,0.01689874,-0.251224984,-1.603830489,9.478403211797325,2.512187897580341,-0.25137415,0.019443327407307417,0.024524331368049334,-0.007984011,-54.44103497,-16.64140978,-40.07370525,0.5941274166107178,0.5966573357582092,1.2344379425048828,9.996000289916992,18.438005447387695,243.0001678466797,158.89999389648438,-86.9149321,40.3885617,-13.46099179,-14.42113166,8.165825862884521,-0.00224175,0.038879242187673316,-0.007373164,-0.137342749,0.038482747,-0.085060002,9.478403211797325,2.512187897580341,-0.25137415,Drive
189,-15.33333333,0.7263338193297386,0.10129215468007785,0.07545328,0.6756128995464399,0.028155254253831048,-0.251766901,-1.639560233,9.615961417411137,2.4950316033317046,-0.365474621,0.023411895784262855,0.004217196,-0.0013979,-54.06088284,-16.92957371,-39.88106724,0.5678392052650452,0.3328663408756256,1.2444379329681396,9.98900032,19.03928565979004,241.00160217285156,158.89999389648438,-86.9151296,40.3884883,-13.08108378,-14.70941772,8.358707838058471,0.001726818,0.018572106335621077,-7.87E-04,-0.00365304,0.024184032128407404,-0.095221928,9.615961417411137,2.4950316033317046,-0.365474621,Drive
190,-16.88888889,0.7377821467455151,0.098750753,0.076211525,0.6633982681533666,0.01916115,-0.249416921,-1.674469003,9.572495752167933,2.439770173100592,-0.042719435,0.011128688,6.95357626435139E-4,-0.002682094,-56.30080284,-17.1760136,-38.47172333,0.6000996232032776,0.24041630327701569,1.254438042640686,9.977000237,19.639474868774414,239.00155639648438,158.89999389648438,-86.9153309,40.3884049,-15.32100375,-14.95597971,9.768051786,-0.01055639,0.015050268443233506,-0.002071247,-0.04287748,-0.009947581,0.14155586743817747,9.572495752167933,2.439770173100592,-0.042719435,Drive
191,-14.5,0.7448130990695028,0.10201793865671435,0.070809749,0.6556088067952869,0.029180823997097108,-0.247337935,-1.694394283,9.719058986,2.335412319424083,0.055380487,-0.005263368,0.016968803,0.001576045,-55.16095711,-17.49162775,-37.09861336,0.6409189105033875,0.5762811899185181,1.2644380331039429,9.984000205993652,20.28744125366211,238.9981231689453,158.89999389648438,-86.9155426,40.3883148,-14.18103574,-15.2717157,11.141039781570434,-0.026948446,0.031323714,0.002186892,0.09820583,-0.094991,0.33621413195596156,9.719058986,2.335412319424083,0.055380487,Drive
192,-17.11111111,0.7502415706810442,0.10304826454630175,0.066888441,0.6496430612304835,0.034556318110632665,-0.243947593,-1.710037434,9.845846625207697,2.135544857932526,-0.019493955,-0.007149285,0.012556469542069307,0.005763018,-53.63973881,-17.01863354,-36.44859737,0.5539047122001648,0.2126029133796692,1.2744380235671997,9.979999542236328,20.82956314086914,240.99851989746094,158.89999389648438,-86.9157638,40.3882329,-12.65969578,-14.79884375,11.791299772262573,-0.028834363,0.026911380393905292,0.006373865,0.20471684909561305,-0.265627875,0.31382064029429724,9.845846625207697,2.135544857932526,-0.019493955,Drive
193,-20.25,0.7605404819099648,0.092776235,0.060952890085653195,0.6396770014346225,0.026707900055114506,-0.220883907,-1.740010016,9.772360283194237,1.949729386,-0.152159126,-0.004694035,0.00360133,9.711286453168514E-4,-51.66748707,-17.24067365,-36.04758331,0.4739433526992798,0.1984943300485611,1.2844380140304565,9.972999572753906,21.18973159790039,242.99879455566406,158.89999389648438,-86.9159968,40.3881587,-10.68744382,-15.02051771,12.192435760498046,-0.026379113,0.017956241,0.001581976,0.06289908,-0.231168381,0.1070714145898819,9.772360283194237,1.949729386,-0.152159126,Drive
194,-20.33333333,0.7730560985583703,0.07966867,0.04881511,0.6273813542810459,0.024968881340860165,-0.185501909,-1.775768799,9.744899658056406,1.6209676621051936,-0.262635293,8.095209385060425E-4,-0.001178698,-0.004330788,-51.79387909,-17.09146759,-35.34864513,0.4415286183357239,0.15620499849319458,1.2944380044937134,9.970000267028809,21.070053100585938,243,158.89999389648438,-86.91623,40.3880821,-10.81395786,-14.87167769,12.891617708206176,-0.020875557,0.013176212736599835,-0.003719941,-0.066079917,-0.220747503,-0.019617621,9.744899658056406,1.6209676621051936,-0.262635293,Drive
195,-17.5,0.781689632,0.074114969,0.042524626,0.6177774679313586,0.025465,-0.169219118,-1.80182255,9.903315044143826,1.419141294886765,-0.229005323,-2.82E-04,0.001667969,0.00130324,-52.9630051,-17.19638762,-35.69231926,0.43352198600769043,0.18439088761806488,1.3044379949569702,9.967000007629395,20.74018096923828,243.00003051757812,158.89999389648438,-86.9164554,40.3880025,-11.98320579,-14.97610969,12.54782175064087,-0.021966779,0.01602288,0.001914087,0.011388047227581728,-0.265721647,0.023773854,9.903315044143826,1.419141294886765,-0.229005323,Drive
196,-18.55555556,0.7884305229464781,0.070286256,0.039111025,0.6098323464393616,0.024373774,-0.159203936,-1.822930517,9.881829002528514,1.179223071024256,-0.223987366,1.4529869444125776E-4,-0.00301717,1.037874071433851E-5,-53.1227029,-16.99362362,-35.05011126,0.470821738,0.15620499849319458,1.314437985420227,9.965999603271484,20.09029197692871,242.99998474121094,158.89999389648438,-86.9166784,40.3879221,-12.14278172,-14.77358972,13.190029764175415,-0.021539779,0.011337740407257513,6.212257628681735E-4,-0.007337839,-0.411999788,0.013585189013805204,9.881829002528514,1.179223071024256,-0.223987366,Drive
197,-19.375,0.7952785416714196,0.066758734,0.036217544,0.6014586675514295,0.022966739839141808,-0.150316368,-1.84483719,9.903071042403434,1.1809363804974602,-0.222840321,2.164653631252716E-4,-0.00376442,-1.08E-04,-52.34495281,-17.40403165,-35.99890514,0.4320308566093445,0.48010414838790894,1.3244379758834839,9.961999893188477,19.421924591064453,243.00173950195312,158.89999389648438,-86.9168856,40.3878465,-11.36490973,-15.18411973,12.241723747253419,-0.021468612,0.01059049,5.026146853161813E-4,0.013995420585558253,-0.316104951,0.00893817,9.903071042403434,1.1809363804974602,-0.222840321,Drive
198,-18.88888889,0.8004758693639514,0.058085917956331404,0.038062779,0.5953071927561343,0.008312823,-0.138746153,-1.862092961,9.894841453404103,1.2773026647498307,0.11448668985309993,-0.015084369,-9.77E-04,7.694897149210272E-4,-50.1864069,-16.97654372,-37.6032053,0.44100818037986755,0.1345362365245819,1.3344379663467407,9.960000038146973,18.85019302368164,242.99998474121094,158.89999389648438,-86.9170881,40.3877724,-9.206363847,-14.75638777,10.636935777664185,-0.036769447,0.013377851695251805,0.001380337,0.026336105124464312,-0.105549002,0.19273413266552594,9.894841453404103,1.2773026647498307,0.11448668985309993,Drive
199,-19.88888889,0.8009676790008178,0.050571223,0.041984996830041595,0.5950866851669091,-0.007130687,-0.13136019,-1.864101142,9.864486879515416,1.1873104644631876,0.2485312213714334,-0.02491552,-0.002842789,-0.001339165,-49.63618675,-15.66309168,-38.98631912,0.48959511518478394,0.22671568393707275,1.3444379568099976,9.961000442504883,18.310331344604492,244.99900817871094,158.89999389648438,-86.9172903,40.3877008,-8.65638782,-13.44305773,9.253333835601806,-0.046600598,0.011512121589196166,-7.28E-04,0.018602829713087816,-0.10861751,0.17747585009783506,9.864486879515416,1.1873104644631876,0.2485312213714334,Drive
200,-15.625,0.8011602736213832,0.048850070287301706,0.04109959,0.5950303748973365,-0.007781645,-0.127534028,-1.86445068,9.822545671925962,1.1496583538726695,-0.1190226,-0.00602248,-0.003040893,-0.004473122,-49.37803505,-15.6497937,-39.03560726,0.4943404793739319,0.5672742128372192,1.3544379472732544,9.977000237,17.68260955810547,245.00265502929688,158.89999389648438,-86.9174861,40.3876371,-8.397869849,-13.42975967,9.204289856,-0.027707557,0.011314018202258401,-0.003862275,-0.028148239,-0.113550257,-0.19566938,9.822545671925962,1.1496583538726695,-0.1190226,Drive
201,-16.11111111,0.8097331327142068,0.050788971,0.030836409229098014,0.583719313,0.009444075,-0.118591672,-1.891845351,9.982751531508363,0.7321572635431313,-0.69485653,0.023333772125165655,0.014786358520917559,-0.001009677,-48.53452698,-15.03271775,-37.97981918,0.4655948281288147,1.0940293073654175,1.3644379377365112,10.003999710083008,16.705829620361328,244.02391052246094,158.89999389648438,-86.9176699,40.3875756,-7.554483856,-12.81280571,10.260199813842773,0.001648695,0.029141269235428677,-3.99E-04,0.11834634854955581,-0.443295182,-0.601628161,9.982751531508363,0.7321572635431313,-0.69485653,Drive
202,-15.375,0.8244226794798397,0.050109650107842046,0.0177869,0.5634302491123236,0.027309556,-0.102861203,-1.941158862,9.981514477035374,0.5016535253691243,-0.593025084,0.019905911,9.044097257253615E-5,-0.004010538,-47.85181515,-16.50171971,-37.24428116,0.5058689117431641,0.764198899,1.374437928199768,10.010000228881836,15.319855690002441,244.01234436035156,158.89999389648438,-86.9178403,40.3875153,-6.871771919,-14.28205173,10.996103792190551,-0.001779167,0.014445352,-0.003399691,0.090256626,-0.519764036,-0.322814395,9.981514477035374,0.5016535253691243,-0.593025084,Drive
203,-15.55555556,0.8348639590068928,0.040592967469281364,0.00969816,0.5488042935584355,0.02852849,-0.078506225,-1.977403746,10.070924589267143,0.31257971300062937,-0.298332066,0.002564965,-0.001356615,6.39017523849582E-4,-48.81866508,-15.86792966,-37.01162739,0.5459309220314026,0.2690724730491638,1.3844380378723145,10.005999565124512,14.01131534576416,243.0019073486328,158.89999389648438,-86.917996,40.3874586,-7.838743882,-13.64789579,11.227903776168823,-0.019120112,0.012998296111795002,0.001249865,0.12643333083217584,-0.469149302,-0.017600992,10.070924589267143,0.31257971300062937,-0.298332066,Drive
204,-20.25,0.8451113469392351,0.021151469089090824,-0.001096309,0.5341331073381368,0.024505863906544387,-0.034585378,-2.013892336,10.125223187566961,0.13219764250109098,-0.229127288,-0.002784396,0.001644247,0.004363407,-48.24428909,-16.60151567,-35.97962931,0.6483926177024841,0.6850547194480896,1.3944380283355713,10.03499984741211,12.548815727233887,241.019043,158.89999389648438,-86.9181385,40.3874033,-7.264245867,-14.38148175,12.260145769119262,-0.024469474,0.015999157,0.004974254,0.045734331,-0.211786562,0.023453421384385487,10.125223187566961,0.13219764250109098,-0.229127288,Drive
205,-24.66666667,0.852245069,0.00657903,-0.009509636,0.5229706550107419,0.023137222396806607,-0.001264895,-2.040799025,10.185743581901477,-0.225085044,-0.235617529,-0.003697702,-0.003266254,-0.001294344,-49.92264294,-16.69874967,-33.82059528,0.669091523,0.35510560870170593,1.4044380187988281,10.02400016784668,10.672910690307617,239.00648498535156,158.89999389648438,-86.9182559,40.3873544,-8.942477805,-14.47883774,14.419667711257935,-0.025382779,0.011088657039172441,-6.83E-04,0.028759095,-0.237709614,7.473715011355946E-4,10.185743581901477,-0.225085044,-0.235617529,Drive
206,-30.625,0.8592984728442813,-0.010053983,-0.018383907,0.5110258899846123,0.021354221151147074,0.036075456,-2.068950732,10.272146595334544,-0.551446886,-0.214259264,-0.004492396,-1.47E-04,0.007115184,-51.65418926,-16.59541566,-34.1334034,0.7806016802787781,0.31827661395072937,1.414438009262085,10.015999794006348,8.132999420166016,238.00668334960938,158.89999389648438,-86.9183484,40.3873156,-10.6741458,-14.37525972,14.107103757858276,-0.026177474,0.014208129494116433,0.007726032,0.025696458168400143,-0.17874441,-0.003316575,10.272146595334544,-0.551446886,-0.214259264,Drive
