seconds_elapsed,orientation_qz,orientation_qy,orientation_qx,orientation_qw,orientation_roll,orientation_pitch,orientation_yaw,gyroscopeUncalibrated_z,gyroscopeUncalibrated_y,gyroscopeUncalibrated_x,magnetometerUncalibrated_z,magnetometerUncalibrated_y,magnetometerUncalibrated_x,accelerometer_z,accelerometer_y,accelerometer_x,accelerometerUncalibrated_z,accelerometerUncalibrated_y,accelerometerUncalibrated_x,totalAcceleration_z,totalAcceleration_y,totalAcceleration_x,magnetometer_z,magnetometer_y,magnetometer_x,microphone_dBFS,gyroscope_z,gyroscope_y,gyroscope_x,location_bearingAccuracy,location_speedAccuracy,location_verticalAccuracy,location_horizontalAccuracy,location_speed,location_bearing,location_altitude,location_longitude,location_latitude,class
0,-0.885492863,-0.017705215,0.002660403,0.4643078519974226,-0.01173681,-0.03383264,2.175520028597043,-0.021218904,0.011453386310389951,0.001133282,-141.7247047,-25.6017787,-31.53810845,0.007426486,8.562976195488447E-4,-0.003375654,9.920040557259007,0.33694721091734736,0.1127775091873972,9.918877625,0.3366051570132927,0.11307194764599388,-92.6745956,-67.46646215,-4.659936603,-90.125,3.1659766469468797E-4,-0.001702178,3.724678408172799E-4,,1.5,3.544828414916992,64.55999755859375,0,0,155.6999969482422,-86.9107487,40.4250478,Garage
1,-0.885471239,-0.017923218,0.002557574,0.46434135807370674,-0.012123021,-0.034122785,2.175432328,-0.021373723,0.011610546,9.651979639475206E-4,-141.7294711,-25.55802343,-31.5879954,0.005215339,-8.28E-04,-0.008024185,9.932516838740376,0.33821270622096017,0.112093868,9.932516838740376,0.33821270622096017,0.112093868,-92.64936043,-67.43830444,-4.707979937,-70.875,1.586423706471269E-4,-0.00152267,2.0163890100943232E-4,,1.5,3.544828414916992,64.55999755859375,0,0,155.6999969482422,-86.9107487,40.4250478,Garage
2,-0.885442849,-0.017952941,0.002560332,0.4643943344171231,-0.012147827,-0.034177269,2.175311329273077,-0.021367906,0.011606098081056889,0.001115971,-141.690553,-25.57376146,-31.58396936,-0.005570375,-0.002434926,-0.008184996,9.912415939627342,0.33677236489879275,0.11214904226724384,9.912415939627342,0.33677236489879275,0.11214904226724384,-92.61093002,-67.45501862,-4.703221927,-68.44444444,1.6445887740701437E-4,-0.001527118,3.5241188015788794E-4,,1.5,3.544828414916992,64.55999755859375,0,0,155.6999969482422,-86.9107487,40.4250478,Garage
3,-0.885440758,-0.017921197,0.002578775,0.46439940084531467,-0.012085832,-0.034138124,2.175301720795122,-0.021527917,0.011918934912068172,5.856423912280538E-4,-141.6299194,-25.34501156,-31.57701542,0.006864511,-2.08E-04,-0.008255395,9.931384262529392,0.33888641144465476,0.11157697214952951,9.931384262529392,0.33888641144465476,0.11157697214952951,-92.55005226,-67.22431717,-4.696877933,-64.75,4.4479163689086735E-6,-0.001214281,-1.78E-04,,1.5,3.544828414916992,64.55999755859375,0,0,155.6999969482422,-86.9107487,40.4250478,Garage
4,-0.885465548,-0.017783616,0.002636405,0.4643570919638699,-0.011854113,-0.03394858,2.175404770860394,-0.021646528,0.012001963,9.058924031317306E-4,-141.6654208,-25.55326548,-31.60373341,-0.009493124,-0.002075023,-0.006941604,9.911867068,0.33502711543759095,0.11059835370521522,9.911867068,0.33502711543759095,0.11059835370521522,-92.58531075,-67.43305893,-4.724449944,-61.55555556,-1.14E-04,-0.001131254,1.4233334188901105E-4,,1.5,3.544828414916992,64.55999755859375,0,0,155.6999969482422,-86.9107487,40.4250478,Garage
5,-0.884689061,-0.018150962,0.002946989,0.4658048158710443,-0.011707363,-0.034872583,2.1721157888764315,-0.021456751,0.012369657120694525,0.001925948,-141.7009227,-25.52581539,-31.52882538,0.007227564,-7.50E-04,6.821833333922821E-4,9.930306897580046,0.345527655,0.1168446653269376,9.930306897580046,0.345527655,0.1168446653269376,-92.62081245,-67.40609688,-4.649175916,-52.125,7.561457035972656E-5,-7.64E-04,0.001162389,45,1.5,3.544828414916992,64.55999755859375,0,0,155.6999969482422,-86.9107487,40.4250478,Garage
6,-0.884285411,-0.018430185,0.003064716,0.46657176040908666,-0.011785972,-0.035462611,2.1703773285578754,-0.021527917,0.011918934912068172,8.110034944109835E-4,-141.556597,-25.58034939,-31.55285934,-0.023791137,0.001324592,-0.011886366,9.884687066078186,0.35273426728179824,0.10495345810732733,9.884687066078186,0.35273426728179824,0.10495345810732733,-92.47685242,-67.46111877,-4.673819871,-60.44444444,4.447913543294066E-6,-0.001214281,4.7444447296337016E-5,45,1.5,3.544828414916992,64.55999755859375,0,0,155.6999969482422,-86.9107487,40.4250478,Garage
7,-0.884612982,-0.018266275,0.002938296,0.46595872171874186,-0.011831733,-0.035062597,2.1717692023342097,-0.021563501,0.012156157094298058,6.212257227444461E-4,-141.6440703,-25.55424158,-31.52431143,-0.003800318,-0.003386416,-0.006289265,9.874066853,0.3434571672990484,0.11044735027459061,9.874066853,0.3434571672990484,0.11044735027459061,-92.5638385,-67.43379082,-4.644295902,-61.88888889,-3.11E-05,-9.77E-04,-1.42E-04,45,1.5,3.544828414916992,64.55999755859375,0,0,155.6999969482422,-86.9107487,40.4250478,Garage
8,-0.884724122,-0.018281366,0.002857017,0.4657475826809707,-0.011981317,-0.035016387,2.172244122884806,-0.021539778,0.011847768268249566,6.68670170605906E-4,-141.6383369,-25.57559147,-31.53663345,-0.004613719,0.00146574,-0.006340124,9.871604326859261,0.34748198714071105,0.11182961207859725,9.871604326859261,0.34748198714071105,0.11182961207859725,-92.55786018,-67.45562912,-4.65588593,-63,-7.41E-06,-0.001285448,-9.49E-05,45,1.5,3.544828414916992,64.55999755859375,0,0,155.6999969482422,-86.9107487,40.4250478,Garage
9,-0.884561696,-0.018431181,0.002882877,0.46604985866731813,-0.012087425,-0.035301498,2.1715541464611166,-0.021456751,0.011895213,9.889201825095829E-4,-141.6028358,-25.57717749,-31.58079737,0.023516072,0.001406822,-0.006578846,9.910862330094124,0.3508505242542156,0.11281984559829952,9.910862330094124,0.3508505242542156,0.11281984559829952,-92.52284607,-67.45697105,-4.700903897,-55.22222222,7.561458787853712E-5,-0.001238004,2.2536112465760082E-4,45,1.5,3.544828414916992,64.55999755859375,0,0,155.6999969482422,-86.9107487,40.4250478,Garage
10,-0.884277919,-0.01859949,0.002978312,0.4665808944174877,-0.012097026,-0.035681058,2.1703473054445706,-0.021520618,0.011711821622716693,8.810296886412499E-4,-141.596613,-25.58034937,-31.51064743,0.009559173,7.017830816599039E-4,-0.007452227,9.935374278466679,0.355171543,0.11261947583226324,9.935374278466679,0.355171543,0.11261947583226324,-92.51650215,-67.46002029,-4.631119914,-58.25,1.1747061552551504E-5,-0.001421395,1.1747062671929598E-4,45,1.5,19.139808654785156,128.8990020751953,1.353075385093689,83.67317199707031,154.29998779296875,-86.9101317,40.4250999,Garage
11,-0.884367031,-0.018541018,0.002951425,0.46641443828934603,-0.012083271,-0.035554794,2.1707259659628266,-0.021563501,0.011966379332238609,8.110035119297942E-4,-141.4735158,-25.54191944,-31.51564932,-0.016693597,-0.003808473,-0.007415459,9.894196769566213,0.3488758651955614,0.11223615951908444,9.894196769566213,0.3488758651955614,0.11223615951908444,-92.39377014,-67.42195618,-4.635511894,-59.44444444,-3.11E-05,-0.001166837,4.7444447296337016E-5,45,1.5,19.139808654785156,128.8990020751953,1.353075385093689,83.67317199707031,154.29998779296875,-86.9101317,40.4250999,Garage
12,-0.884529221,-0.018479962,0.002877902,0.46610970028395793,-0.012144108,-0.035382352,2.1714164817217485,-0.021492334,0.011752879337489027,9.05892400306116E-4,-141.5030394,-25.53716143,-31.43525145,-0.006639147,-5.93E-04,-0.007487314,9.885409549602027,0.34971219156552286,0.1125526860066988,9.885409549602027,0.34971219156552286,0.1125526860066988,-92.42280586,-67.41719902,-4.554137883,-59.125,4.003125240628436E-5,-0.001380337,1.4233334188901105E-4,45,1.5,19.139808654785156,128.8990020751953,1.353075385093689,83.67317199707031,154.29998779296875,-86.9101317,40.4250999,Garage
13,-0.884558722,-0.018381569,0.002911705,0.46605738592379303,-0.011990319,-0.035240501,2.1715401353187933,-0.021409306,0.012025685,8.110035085390566E-4,-141.4881546,-25.54557943,-31.45318539,-0.005860199,-0.003058665,-0.009065479,9.870218011049124,0.34497485180886894,0.11007271768399872,9.870218011049124,0.34497485180886894,0.11007271768399872,-92.40804413,-67.42500664,-4.573535893,-57.33333333,1.2305903460975122E-4,-0.001107531,4.7444447296337016E-5,45,1.5,19.139808654785156,128.8990020751953,1.353075385093689,83.67317199707031,154.29998779296875,-86.9101317,40.4250999,Garage
14,-0.884187698,-0.018322984,0.003101006,0.46676087437324154,-0.011628932,-0.035304476,2.1699551517523608,-0.021385584,0.01155124,8.46586860964997E-4,-140.9766096,-25.69893341,-31.12329727,0.033090517358872494,9.427582754672153E-4,-0.008230568,9.926668278221944,0.35180010172782594,0.10712817888164404,9.926668278221944,0.35180010172782594,0.10712817888164404,-91.89686424,-67.57848289,-4.243281937,-16.625,1.4678125599742802E-4,-0.001581976,8.302781441547338E-5,45,1.5,19.139808654785156,128.8990020751953,1.353075385093689,83.67317199707031,154.29998779296875,-86.9101317,40.4250999,Garage
15,-0.883684484,-0.01832415,0.003153472,0.46771343616605965,-0.011575095,-0.035342741,2.1678009218382606,-0.021361862,0.011883351457354984,7.516979471581436E-4,-141.4526529,-25.6595274,-31.44818342,0.006837613,0.005032697,-0.007406384,9.931642726787086,0.35480565107563167,0.10645737611316823,9.931642726787086,0.35480565107563167,0.10645737611316823,-92.37241989,-67.53907692,-4.567923923,-24.77777778,1.705034813409653E-4,-0.001249865,-1.19E-05,45,1.5,7.536870002746582,61.62200164794922,0.5158981084823608,276.17974853515625,155.6999969482422,-86.9105352,40.425088,Garage
16,-0.883375694,-0.018393072,0.003176329,0.46829359045306457,-0.011622516,-0.035478352,2.166484633695732,-0.02133814,0.011563101449407167,8.110035045831961E-4,-141.4100751,-25.62463554,-31.50393726,-0.013436225,-0.001584214,-0.009959648,9.914800023569644,0.34999096538256674,0.10649512767864083,9.914800023569644,0.34999096538256674,0.10649512767864083,-92.32971916,-67.5046727,-4.623555918,-16.88888889,1.942257044240109E-4,-0.001570115,4.7444438254370276E-5,45,1.5,7.536870002746582,61.62200164794922,0.5158981084823608,276.17974853515625,155.6999969482422,-86.9105352,40.425088,Garage
17,-0.883112916,-0.018386963,0.003017427,0.4687902732537343,-0.011917525,-0.035311954,2.165356383873866,-0.021497124,0.011782303955092525,7.870532471525411E-4,-141.4611932,-25.63927553,-31.48380739,-0.020384009,-0.004088013,-0.008770818,9.875948628175605,0.346645661,0.1079180430286356,9.875948628175605,0.346645661,0.1079180430286356,-92.38144753,-67.5196788,-4.602571907,-21.625,3.5241184097965466E-5,-0.001350912,2.3494152208933465E-5,45,1.5,7.536870002746582,61.62200164794922,0.5158981084823608,276.17974853515625,155.6999969482422,-86.9105352,40.425088,Garage
18,-0.883025793,-0.018335519,0.002779328,0.4689574658292011,-0.012296666,-0.034995621,2.1649745505990334,-0.021421167,0.011646129,8.94031294698384E-4,-141.3979968,-25.62695349,-31.53333941,0.004925413,0.002938495,-0.015852511,9.887680396292973,0.3490036368659399,0.10565880114592395,9.887680396292973,0.3490036368659399,0.10565880114592395,-92.31825172,-67.5068689,-4.653323889,-13.88888889,1.1119791713443774E-4,-0.001487087,1.3047224814886029E-4,45,1.5,7.536870002746582,61.62200164794922,0.5158981084823608,276.17974853515625,155.6999969482422,-86.9105352,40.425088,Garage
19,-0.882682075,-0.018311212,0.002533974,0.46960644438428784,-0.012732739,-0.034713015,2.163499644659098,-0.021266973,0.011729157020595576,-7.41E-06,-141.433622,-25.59145151,-31.54151335,0.035093779702788416,0.002255897,-0.015564818,9.931056124492756,0.34598357,0.11042121497098158,9.931056124492756,0.34598357,0.11042121497098158,-92.35338844,-67.47197716,-4.663205886,-28,2.653923748033935E-4,-0.001404059,-7.71E-04,45,1.5,7.536870002746582,61.62200164794922,0.5158981084823608,276.17974853515625,155.6999969482422,-86.9105352,40.425088,Garage
20,-0.882434736,-0.017958072,0.002735824,0.47008385675624736,-0.012062643,-0.034272542,2.1624384852288996,-0.021243251,0.011480073770056071,6.44947936220402E-4,-141.5670898,-25.63049156,-31.40572739,0.013351949673254513,0.002658176,-0.012100997,9.936744912156781,0.34296350253438485,0.10756957429705315,9.936744912156781,0.34296350253438485,0.10756957429705315,-92.48685608,-67.51052864,-4.525711889,-32.11111111,2.891146001469308E-4,-0.001653142,-1.19E-04,45,1.5,4.867705345153809,74.64099884033203,2.561185836791992,256.1792297363281,155.6999969482422,-86.9107176,40.4250521,Garage
21,-0.882269336,-0.017905466,0.002874887,0.4703954909611674,-0.011779671,-0.034306288,2.1617374072954494,-0.021290695,0.011622407098382134,9.177535030882335E-4,-141.4596071,-25.60377348,-31.39779745,-0.015495087,-0.002769419,-0.009249854,9.910700422066908,0.3386821885808156,0.10752746767292802,9.910700422066908,0.3386821885808156,0.10752746767292802,-92.37949593,-67.48307816,-4.517781878,-28.5,2.4167015228547084E-4,-0.001510809,1.541944537130953E-4,45,1.5,4.867705345153809,74.64099884033203,2.561185836791992,256.1792297363281,155.6999969482422,-86.9107176,40.4250521,Garage
22,-0.882520667,-0.017822854,0.00275235,0.4699276260380606,-0.011900099,-0.034051484,2.162799228742285,-0.021385584,0.011503795975620307,8.228646158421575E-4,-141.4877898,-25.60914141,-31.44025345,-0.013839231,-0.002559681,-0.00789736,9.876813934844675,0.33341834614577803,0.10978525884232475,9.876813934844675,0.33341834614577803,0.10978525884232475,-92.40767792,-67.48978874,-4.559993887,-33.44444444,1.4678125712767388E-4,-0.00162942,5.930555912042127E-5,45,1.5,4.867705345153809,74.64099884033203,2.561185836791992,256.1792297363281,155.6999969482422,-86.9107176,40.4250521,Garage
23,-0.88251309,-0.017880279,0.00272606,0.46993986582293096,-0.012001037,-0.034127958,2.162768322287254,-0.021456751,0.011657990479064219,9.88920175162985E-4,-141.4912042,-25.60267553,-31.47209558,0.003001991,-9.59E-04,-0.008859744,9.889248597969129,0.3372950671077932,0.10936709493398666,9.889248597969129,0.3372950671077932,0.10936709493398666,-92.41158203,-67.4829567,-4.592567897,-33.66666667,7.56145873134142E-5,-0.001475226,2.2536112465760082E-4,45,1.5,4.867705345153809,74.64099884033203,2.561185836791992,256.1792297363281,155.6999969482422,-86.9107176,40.4250521,Garage
24,-0.882417646,-0.017843047,0.002810082,0.47011997369886604,-0.01182459,-0.034138838,2.162363541,-0.021480473,0.011847768232081701,7.754201674155746E-4,-141.4570457,-25.6128014,-31.44391338,0.012048480580153974,6.835032435296808E-4,-0.008617876,9.903445753079016,0.33819237597359036,0.10852205724392122,9.903445753079016,0.33819237597359036,0.10852205724392122,-92.37705559,-67.49235085,-4.564019899,-34.5,5.189236366524569E-5,-0.001285448,1.1861111824084254E-5,45,1.5,4.867705345153809,74.64099884033203,2.561185836791992,256.1792297363281,155.6999969482422,-86.9107176,40.4250521,Garage
25,-0.882178144,-0.017927789,0.002923473,0.47056533052371097,-0.011721564,-0.034389156,2.1613523203593035,-0.021344412,0.011559109875144294,9.162708671423248E-4,-141.4574106,-25.54496946,-31.44269337,0.017209795805124137,8.488277403207925E-4,-0.008746978,9.943717197307105,0.34243499176594816,0.10772348173613687,9.943717197307105,0.34243499176594816,0.10772348173613687,-92.37766586,-67.42451897,-4.563043895,-30.66666667,1.8795300219118452E-4,-0.001574106,1.5271181473508477E-4,45,1.5,13.018001556396484,83.76999664,14.418194770812988,85.53782653808594,158.09999084472656,-86.9095471,40.425128,Garage
26,-0.882240273,-0.017949951,0.002869936,0.47044829199615035,-0.011832397,-0.034379447,2.1616155314214023,-0.021373723,0.011634268,8.465868406205718E-4,-141.4648537,-25.55570545,-31.47953743,-0.024450191,-0.003338269,-0.007832268,9.892294726,0.3378032521136756,0.10944550082955545,9.892294726,0.3378032521136756,0.10944550082955545,-92.38523033,-67.43586479,-4.599155903,-27.625,1.586423706471269E-4,-0.001498948,8.302778276858978E-5,45,1.5,13.018001556396484,83.76999664,14.418194770812988,85.53782653808594,158.09999084472656,-86.9095471,40.425128,Garage
27,-0.882357456,-0.017893293,0.00282278,0.4702309615982389,-0.011853793,-0.034237973,2.16210988,-0.021350001,0.011669852,8.46586839490326E-4,-141.3677415,-25.51654345,-31.51369745,-0.004254804,-9.06E-04,-0.009008652,9.885903182538968,0.33793683234349037,0.10816487612076175,9.885903182538968,0.33793683234349037,0.10816487612076175,-92.28775169,-67.39658058,-4.633559923,-27.22222222,1.8236459429529542E-4,-0.001463365,8.302778276858978E-5,45,1.5,13.018001556396484,83.76999664,14.418194770812988,85.53782653808594,158.09999084472656,-86.9095471,40.425128,Garage
28,-0.882357199,-0.017874996,0.002832945,0.47023206023336617,-0.01181866,-0.034215231,2.1621084514173488,-0.021361862,0.011918934921110139,8.703090603128799E-4,-141.2811208,-25.49726749,-31.71426537,-0.008137379,-0.002119702,-0.00805267,9.873822906642284,0.336203198,0.10869919512312388,9.873822906642284,0.336203198,0.10869919512312388,-92.20064415,-67.37645119,-4.833639917,-25.75,1.7050348247121117E-4,-0.001214281,1.0675000641675828E-4,45,1.5,13.018001556396484,83.76999664,14.418194770812988,85.53782653808594,158.09999084472656,-86.9095471,40.425128,Garage
29,-0.882419583,-0.017848148,0.002805993,0.4701161636310874,-0.011836475,-0.034144036,2.1623718483934127,-0.021373723,0.011503795948494407,7.635590538961216E-4,-141.0959256,-25.82739946,-31.61093136,0.024658314,0.001854261,-0.00766367,9.917553855822636,0.3403071208068958,0.1092760691132683,9.917553855822636,0.3403071208068958,0.1092760691132683,-92.01557045,-67.70731476,-4.731037922,-27.33333333,1.586423706471269E-4,-0.00162942,0,45,1.5,13.018001556396484,83.76999664,14.418194770812988,85.53782653808594,158.09999084472656,-86.9095471,40.425128,Garage
30,-0.882167783,-0.018021922,0.002878883,0.4705814154981409,-0.011889637,-0.034513078,2.1613105547080917,-0.021456751,0.011563101584471545,9.414757289968938E-4,-141.3538336,-25.58766956,-31.41963537,0.009005408,0.001100191,-0.009335932,9.939942100673045,0.3433990893722738,0.1089286049375835,9.939942100673045,0.3433990893722738,0.1089286049375835,-92.27359955,-67.4672187,-4.538765893,-28.125,7.56145873134142E-5,-0.001570115,1.779166773612638E-4,45,1.5,3.9911792278289795,67.75700378417969,7.014311314,263.7468566894531,155.6999969482422,-86.9105352,40.4250547,Garage
31,-0.882087377,-0.01804361,0.002920597,0.4707310541162213,-0.011842305,-0.034588616,2.1609711230379864,-0.021444889,0.011978240475709577,8.465868349693427E-4,-141.3888477,-25.54875143,-31.39816334,-0.011273384,-0.002475927,-0.006364995,9.911405304103221,0.340306424,0.11099328494911055,9.911405304103221,0.340306424,0.11099328494911055,-92.30885811,-67.42915398,-4.518391891,-27,8.747569857237554E-5,-0.001154976,8.302778276858978E-5,45,1.5,3.9911792278289795,67.75700378417969,7.014311314,263.7468566894531,155.6999969482422,-86.9105352,40.4250547,Garage
32,-0.882279884,-0.017903733,0.002868791,0.47037573983368364,-0.011788051,-0.034297786,2.161782118880633,-0.021527917,0.011871490473813803,6.923923852121078E-4,-141.4405754,-25.55326538,-31.43525137,-0.013159048,-0.00333487,-0.006874537,9.887459662354107,0.33792231239161447,0.10984624075947456,9.887459662354107,0.33792231239161447,0.10984624075947456,-92.3603418,-67.43269264,-4.55486989,-27.11111111,4.447916934031595E-6,-0.001261726,-7.12E-05,45,1.5,3.9911792278289795,67.75700378417969,7.014311314,263.7468566894531,155.6999969482422,-86.9105352,40.4250547,Garage
33,-0.882592394,-0.017860662,0.002683854,0.469791904,-0.012051382,-0.034055663,2.163103688221711,-0.021438389,0.011688327506327858,9.045238055897733E-4,-141.4507013,-25.55936539,-31.41878143,-0.003282272,-0.001469044,-0.007582224,9.878233983678726,0.3346002373880553,0.11139402513220473,9.878233983678726,0.3346002373880553,0.11139402513220473,-92.37046799,-67.43928085,-4.538399897,-26.375,9.397650137543678E-5,-0.001444889,1.4096475206315517E-4,45,1.5,3.9911792278289795,67.75700378417969,7.014311314,263.7468566894531,155.6999969482422,-86.9105352,40.4250547,Garage
34,-0.882431548,-0.01792962,0.002753499,0.47009089560184664,-0.012004907,-0.034238812,2.1624242657596624,-0.021492334,0.011574962700816612,8.46586839490326E-4,-141.4458209,-25.60304148,-31.44147341,0.020488007554730164,0.002508194,-0.008956357,9.919283607631053,0.34164802961557816,0.10980848964412236,9.919283607631053,0.34164802961557816,0.10980848964412236,-92.36595436,-67.4833226,-4.562067885,-26.66666667,4.0031251841161433E-5,-0.001558254,8.302778276858978E-5,45,1.5,3.9911792278289795,67.75700378417969,7.014311314,263.7468566894531,155.6999969482422,-86.9105352,40.4250547,Garage
35,-0.88226565,-0.018062973,0.00279123,0.4703968954317778,-0.012075813,-0.034505504,2.1617251923940715,-0.021539778,0.011646129353677185,8.82170172702087E-4,-141.4436259,-25.55472946,-31.46038345,0.006652952,-8.68E-04,-0.007289899,9.928750417764904,0.3417380524491801,0.11246847245589044,9.928750417764904,0.3417380524491801,0.11246847245589044,-92.36363564,-67.4359864,-4.579513879,-27.25,-7.41E-06,-0.001487087,1.1861111824084254E-4,45,1.5,3.9911792278289795,67.75700378417969,7.014311314,263.7468566894531,155.6999969482422,-86.9105352,40.4250547,Garage
36,-0.882269909,-0.018077404,0.002780507,0.4703884228919316,-0.012108006,-0.034520997,2.161743492756075,-0.021397445,0.011634268219248184,6.923923846469848E-4,-141.40056,-25.53899155,-31.5069874,-0.006420228,-0.00127425,-0.010617317,9.920285511942742,0.34164222149015633,0.10952100226456679,9.920285511942742,0.34164222149015633,0.10952100226456679,-92.32020378,-67.41841835,-4.627581911,-27,1.3492014643383548E-4,-0.001498948,-7.12E-05,45,1.5,35.44828414916992,128.8990020751953,8.087031364440918,84.43912506103516,154.29998779296875,-86.9097722,40.4251124,Garage
37,-0.882456231,-0.017882126,0.002762972,0.47004629136289205,-0.011941737,-0.034164499,2.162527746367223,-0.021314417,0.011693574,7.754201696760664E-4,-141.4944995,-25.51068754,-31.38718334,-0.020462258,-0.002308349,-0.008049807,9.876654423200167,0.3353805529096952,0.10998931434005499,9.876654423200167,0.3353805529096952,0.10998931434005499,-92.41463203,-67.39072525,-4.507655902,-26,2.1794792920242526E-4,-0.001439642,1.1861111824084254E-5,45,1.5,35.44828414916992,128.8990020751953,8.087031364440918,84.43912506103516,154.29998779296875,-86.9097722,40.4251124,Garage
38,-0.882472572,-0.017841818,0.002774105,0.47001714179816756,-0.011882975,-0.0341042,2.162595943,-0.021622806,0.011883351572074936,7.042534987315608E-4,-141.4126373,-25.56717335,-31.44842735,0.006009222,6.422276057085945E-4,-0.007802657,9.890476847157895,0.33837241845802196,0.10994787774618389,9.890476847157895,0.33837241845802196,0.10994787774618389,-92.33264778,-67.44769844,-4.567191916,-25.77777778,-9.04E-05,-0.001249865,-5.93E-05,45,1.5,35.44828414916992,128.8990020751953,8.087031364440918,84.43912506103516,154.29998779296875,-86.9097722,40.4251124,Garage
39,-0.882405571,-0.017895057,0.002789715,0.47014078150675137,-0.011910344,-0.034211192,2.1623135492639634,-0.021456751,0.011800324,8.347257287964876E-4,-141.3964113,-25.56278151,-31.40816738,0.009420339,7.898969557678815E-4,-0.006492439,9.909866295971916,0.3399957042295956,0.11073193380844246,9.909866295971916,0.3399957042295956,0.11073193380844246,-92.31617775,-67.44330643,-4.527907901,-27,7.561458674829128E-5,-0.001332892,7.116667094450552E-5,45,1.5,35.44828414916992,128.8990020751953,8.087031364440918,84.43912506103516,154.29998779296875,-86.9097722,40.4251124,Garage
40,-0.882182908,-0.018060823,0.002847524,0.470551772,-0.011980493,-0.034552587,2.1613752888244333,-0.021421167,0.011634268192122283,9.058923974805015E-4,-141.4566788,-25.56412346,-31.46514137,0.018032296,0.001497184,-0.008578544,9.943920497,0.34519370478912464,0.11043283090140056,9.943920497,0.34519370478912464,0.11043283090140056,-92.37742226,-67.44330688,-4.585247912,-27.5,1.1119792335078988E-4,-0.001498948,1.4233334188901105E-4,45,1.5,35.44828414916992,128.8990020751953,8.087031364440918,84.43912506103516,154.29998779296875,-86.9097722,40.4251124,Garage
41,-0.88213731,-0.018061695,0.00287743,0.47063703949634844,-0.011931868,-0.034581134,2.161182550283579,-0.021508871,0.011723568725686234,7.400649332199604E-4,-141.4675372,-25.57290747,-31.45025734,-0.01657673,-0.003591176,-0.008511689,9.916031328219812,0.3396065815270526,0.11019471,9.916031328219812,0.3396065815270526,0.11019471,-92.38718208,-67.45270111,-4.569631877,-29.375,2.3494125343859196E-5,-0.001409647,-2.35E-05,45,1.5,5.727303981781006,61.29999923706055,6.073192119598389,263.6397705078125,155.6999969482422,-86.9106172,40.4250437,Garage
42,-0.882400205,-0.017935391,0.002771263,0.47014942215484323,-0.011981238,-0.03426492,2.1622917073444254,-0.021610945,0.011717296,7.635590538961216E-4,-141.4671718,-25.58425348,-31.51125744,-0.011790887,-0.001881459,-0.007254498,9.884782263,0.3374344573437589,0.11127496478193015,9.884782263,0.3374344573437589,0.11127496478193015,-92.38681549,-67.46477867,-4.629899912,-28.55555556,-7.86E-05,-0.00141592,0,45,1.5,5.727303981781006,61.29999923706055,6.073192119598389,263.6397705078125,155.6999969482422,-86.9106172,40.4250437,Garage
43,-0.882481044,-0.017882663,0.002746143,0.4699998356184913,-0.011970132,-0.03415024,2.162632680633693,-0.021480473,0.011859629375552669,6.568090536957155E-4,-141.4896193,-25.57607962,-31.44208342,-0.002828589,6.205665255055844E-4,-0.008639219,9.888473195937074,0.33863086607849713,0.10972137289863189,9.888473195937074,0.33863086607849713,0.10972137289863189,-92.40938637,-67.4563607,-4.563043895,-27.5,5.189236366524569E-5,-0.001273587,-1.07E-04,45,1.5,5.727303981781006,61.29999923706055,6.073192119598389,263.6397705078125,155.6999969482422,-86.9106172,40.4250437,Garage
44,-0.882438201,-0.017825573,0.002805898,0.47008207874390684,-0.011814072,-0.034104545,2.162450131,-0.021551639,0.011990101583012678,7.161146133812596E-4,-141.4267897,-25.5781535,-31.46672745,0.014697547,0.001197516,-0.005489039,9.905757237,0.3387441193883859,0.11130981226858583,9.905757237,0.3387441193883859,0.11130981226858583,-92.34667809,-67.45904449,-4.587687898,-28.11111111,-1.93E-05,-0.001143115,-4.74E-05,45,1.5,5.727303981781006,61.29999923706055,6.073192119598389,263.6397705078125,155.6999969482422,-86.9106172,40.4250437,Garage
45,-0.882157119,-0.018012114,0.002891366,0.47060173981398057,-0.011859139,-0.034507243,2.1612652088831927,-0.021539778,0.011883352,7.75420171936558E-4,-141.449847,-25.53581944,-31.41829338,0.019275146780662167,0.001933579,-0.007628174,9.951004487,0.3454723971394392,0.11000944652522986,9.951004487,0.3454723971394392,0.11000944652522986,-92.36973579,-67.41634422,-4.537789903,-27.625,-7.41E-06,-0.001249865,1.1861111824084254E-5,45,1.5,4.204041957855225,52.020999908447266,19.247285842895508,82.18977355957031,156.09999084472656,-86.9091095,40.4251993,Garage
46,-0.882214248,-0.018000919,0.002859408,0.47049523528339793,-0.011900843,-0.034458833,2.161506523206396,-0.021599084,0.011883351635368704,7.516979477232666E-4,-141.4785172,-25.58510748,-31.49564137,-0.017559885,-0.003415385,-0.00698536,9.908574048755238,0.33912453142184656,0.11073193351909952,9.908574048755238,0.33912453142184656,0.11073193351909952,-92.39852798,-67.46538849,-4.61440588,-28.33333333,-6.67E-05,-0.001249865,-1.19E-05,45,1.5,4.204041957855225,52.020999908447266,19.247285842895508,82.18977355957031,156.09999084472656,-86.9091095,40.4251993,Garage
47,-0.882382171,-0.017845463,0.002832429,0.4701863368159359,-0.011789977,-0.034163231,2.162213448181893,-0.021646528,0.012001962717441679,6.568090525654696E-4,-141.4431378,-25.54997156,-31.47050934,-0.006941953,-0.001550391,-0.007272409,9.89836391,0.3364529346378104,0.11002628302689894,9.89836391,0.3364529346378104,0.11002628302689894,-92.3633918,-67.43000862,-4.590005903,-29.625,-1.14E-04,-0.001131254,-1.07E-04,45,1.5,4.204041957855225,52.020999908447266,19.247285842895508,82.18977355957031,156.09999084472656,-86.9091095,40.4251993,Garage
48,-0.882498176,-0.017810608,0.002774063,0.46997025493279243,-0.011851855,-0.034049697,2.1627036552984737,-0.021516056,0.011895213,7.872812798047818E-4,-141.4629019,-25.52422949,-31.40841137,-0.01038455,-3.28E-04,-0.006465695,9.877850643639425,0.33602315549132894,0.110424119,9.877850643639425,0.33602315549132894,0.110424119,-92.38327766,-67.40475471,-4.528639908,-27.77777778,1.6309027062747086E-5,-0.001238004,2.3722223648168508E-5,45,1.5,4.204041957855225,52.020999908447266,19.247285842895508,82.18977355957031,156.09999084472656,-86.9091095,40.4251993,Garage
49,-0.882462479,-0.017847136,0.002777918,0.4700358292231193,-0.011881993,-0.034116923,2.1625533998012543,-0.021638089,0.012017245243231837,6.460884346429688E-4,-141.3733543,-25.53789341,-31.41585344,0.020279618409963753,0.002846007,-0.006592528,9.917343853,0.34100917068499964,0.1110484598620424,9.917343853,0.34100917068499964,0.1110484598620424,-92.29373001,-67.41719841,-4.536447906,-27.11111111,-1.06E-04,-0.001115971,-1.17E-04,45,1.5,4.204041957855225,52.020999908447266,19.247285842895508,82.18977355957031,156.09999084472656,-86.9091095,40.4251993,Garage
50,-0.882162318,-0.018000284,0.002894374,0.4705924229714477,-0.011842311,-0.034489326,2.161286937,-0.021409306,0.011824046053643365,7.635590601124737E-4,-141.4781508,-25.51764128,-31.47355934,0.00821633,0.001558853,-0.006552334,9.938098083422021,0.3442557420834754,0.11099328512994988,9.938098083422021,0.3442557420834754,0.11099328512994988,-92.39779648,-67.3982888,-4.594031906,-31.625,1.2305903517487412E-4,-0.00130917,0,45,1.5,4.204041957855225,52.020999908447266,19.247285842895508,82.18977355957031,156.09999084472656,-86.9091095,40.4251993,Garage
51,-0.882165408,-0.018052614,0.00286369,0.4705848213538383,-0.011945501,-0.034552882,2.161301108239924,-0.021516056,0.011741018293479693,8.584479513144102E-4,-141.4448448,-25.58034946,-31.39987141,-0.005740693,-0.001347548,-0.00808726,9.924005452869007,0.34196745915320315,0.11046187022646654,9.924005452869007,0.34196745915320315,0.11046187022646654,-92.3649778,-67.461362,-4.519611883,-34.44444444,1.630902875811585E-5,-0.001392198,9.488889459267403E-5,45,1.5,3.555347204208374,68.72899627685547,15.09324836730957,261.83209228515625,155.6999969482422,-86.9103692,40.4250626,Garage
52,-0.882402364,-0.017977065,0.002747041,0.4701439038063716,-0.012063047,-0.034315759,2.1623017672196174,-0.021527917,0.011752879346530992,6.80531269997286E-4,-141.4125148,-25.54252943,-31.43232342,-0.01913341,-0.002969702,-0.007335963,9.888342440707012,0.3372195671194965,0.1121374265227503,9.888342440707012,0.3372195671194965,0.1121374265227503,-92.33240379,-67.4226886,-4.552673888,-31.75,4.447915803785753E-6,-0.001380337,-8.30E-05,45,1.5,3.555347204208374,68.72899627685547,15.09324836730957,261.83209228515625,155.6999969482422,-86.9103692,40.4250626,Garage
53,-0.882577822,-0.017894849,0.002674916,0.4698180261167508,-0.012100346,-0.03410726,2.1630427212391083,-0.021575362,0.011788462659398329,7.161146122510138E-4,-141.4123936,-25.50812555,-31.47953737,-1.72E-04,-7.93E-05,-0.008151412,9.884212512236376,0.33722693602053017,0.11121448516272582,9.884212512236376,0.33722693602053017,0.11121448516272582,-92.33240372,-67.38852859,-4.5998879,-34.55555556,-4.30E-05,-0.001344754,-4.74E-05,45,1.5,3.555347204208374,68.72899627685547,15.09324836730957,261.83209228515625,155.6999969482422,-86.9103692,40.4250626,Garage
54,-0.882446332,-0.017967666,0.002722863,0.470061886,-0.012093688,-0.034277548,2.162487624918373,-0.021468612,0.011741018,7.516979409417916E-4,-141.4460649,-25.50251345,-31.45050148,0.012676785,0.001012247,-0.007689052,9.914544466629769,0.341285042,0.11237845106900317,9.914544466629769,0.341285042,0.11237845106900317,-92.36558807,-67.38267242,-4.571095886,-31.625,6.375347548932994E-5,-0.001392198,-1.19E-05,45,1.5,3.555347204208374,68.72899627685547,15.09324836730957,261.83209228515625,155.6999969482422,-86.9103692,40.4250626,Garage
55,-0.882212089,-0.018097314,0.002808125,0.47049589382791984,-0.012082243,-0.034580656,2.1614994724977366,-0.021290695,0.011705434894713672,8.584479484887957E-4,-141.4353291,-25.53423346,-31.49210337,0.014277226716569327,0.001293575,-0.007631394,9.935258032,0.3447000416158472,0.11198061545497005,9.935258032,0.3447000416158472,0.11198061545497005,-92.35558388,-67.41305099,-4.611721911,-32.88888889,2.4167015285059376E-4,-0.001427781,9.488889459267403E-5,45,1.5,3.555347204208374,68.72899627685547,15.09324836730957,261.83209228515625,155.6999969482422,-86.9103692,40.4250626,Garage
56,-0.882120202,-0.018142049,0.002844861,0.4706662172831378,-0.01206625,-0.034691861,2.1611119543464437,-0.021290695,0.011657990442896352,7.991423933242348E-4,-141.4455771,-25.54057753,-31.47599936,-0.004453298,-0.001752729,-0.008096458,9.932252541329097,0.34270505288850917,0.11165828149295548,9.932252541329097,0.34270505288850917,0.11165828149295548,-92.36570938,-67.41951653,-4.595251904,-35.44444444,2.4167015285059376E-4,-0.001475226,3.558333547225276E-5,45,1.5,8.676882744,68.63800048828125,9.121391296386719,264.4046936035156,155.6999969482422,-86.9107921,40.425041,Garage
57,-0.882403747,-0.017980047,0.002744491,0.4701412176856628,-0.012070256,-0.034318658,2.1623076796531677,-0.021520618,0.011888027621003298,7.870531799898555E-4,-141.4236179,-25.55302151,-31.44244944,-0.021344625,-0.003258494,-0.008400121,9.879273599791295,0.33642389430004416,0.11117623153242093,9.879273599791295,0.33642389430004416,0.11117623153242093,-92.34350578,-67.43269302,-4.562067919,-38.75,1.174706211224055E-5,-0.001245189,2.3494125343859196E-5,45,1.5,8.676882744,68.63800048828125,9.121391296386719,264.4046936035156,155.6999969482422,-86.9107921,40.425041,Garage
58,-0.882496082,-0.017913487,0.002719278,0.4699705865197969,-0.01204546,-0.034179785,2.162697018928898,-0.021610945,0.011895212706503937,7.398368342038136E-4,-141.414711,-25.58022753,-31.48612547,0.002657779,6.847966064527197E-5,-0.006719468,9.892712815293988,0.3382969184697253,0.11235812371506275,9.892712815293988,0.3382969184697253,0.11235812371506275,-92.33496605,-67.45928856,-4.606475883,-39.11111111,-7.86E-05,-0.001238004,-2.37E-05,45,1.5,8.676882744,68.63800048828125,9.121391296386719,264.4046936035156,155.6999969482422,-86.9107921,40.425041,Garage
59,-0.88239489,-0.017917609,0.002784526,0.47015995336967764,-0.011941483,-0.034245898,2.1622689094358276,-0.021563501,0.011800323811911264,8.110035045831961E-4,-141.420811,-25.5469215,-31.50723139,0.00581558,5.134435243976926E-4,-0.00553461,9.898392937,0.33948461754808146,0.11254397425258043,9.898392937,0.33948461754808146,0.11254397425258043,-92.340578,-67.42598289,-4.627337899,-40.875,-3.11E-05,-5.72E-04,4.7444447296337016E-5,45,1.5,8.676882744,68.63800048828125,9.121391296386719,264.4046936035156,155.6999969482422,-86.9107921,40.425041,Garage
60,-0.881992489,-0.017860958,0.003083806,0.4709147157020939,-0.011389191,-0.034417706,2.160566436434255,-0.021480473,0.012061268226831283,6.923923919935828E-4,-141.4202011,-25.55033743,-31.4590416,0.021484505,0.001681725,-0.00138043,9.945601805899907,0.3434310319643576,0.1115914913780481,9.945601805899907,0.3434310319643576,0.1115914913780481,-92.34070007,-67.431595,-4.5787819,-36,5.1892364230368614E-5,3.024583515141485E-4,-7.12E-05,45,1.5,8.676882744,68.63800048828125,9.121391296386719,264.4046936035156,155.6999969482422,-86.9107921,40.425041,Garage
61,-0.881838164,-0.017840923,0.003197614,0.47120366137004593,-0.011180758,-0.034485909,2.159914375508873,-0.021421167,0.011835907188072366,8.940312822656797E-4,-141.4816901,-25.55948753,-31.41804937,-0.012931666,-0.001516996,0.001400267,9.92388971,0.3419032937918718,0.11251155659556389,9.92388971,0.3419032937918718,0.11251155659556389,-92.40170006,-67.44013504,-4.538277912,-33.75,1.1119792222054404E-4,7.709722685654765E-5,1.304722300649268E-4,45,1.5,3.229520320892334,46.500999450683594,0.6233072280883789,92.06587982177734,155.6999969482422,-86.9105722,40.4250522,Garage
62,-0.882017191,-0.01779081,0.003105727,0.47087097486245977,-0.011282641,-0.03431514,2.1606693013200484,-0.02144489,0.011669852,7.754201708063122E-4,-141.4265465,-25.56546543,-31.5218714,-0.011299244,-0.001224413,1.4650300868506572E-4,9.895872357,0.3385263245950625,0.11180057250035619,9.895872357,0.3385263245950625,0.11180057250035619,-92.34655571,-67.44538048,-4.641733894,-34.55555556,8.747569800725261E-5,-8.90E-05,1.1861111824084254E-5,45,1.5,3.229520320892334,46.500999450683594,0.6233072280883789,92.06587982177734,155.6999969482422,-86.9105722,40.4250522,Garage
63,-0.882185105,-0.017754478,0.003013618,0.4705582807943659,-0.011398814,-0.034168296,2.161378112811487,-0.021456751,0.011657990460980285,7.754201668504517E-4,-141.4382574,-25.55375347,-31.46855749,-0.010047311,1.3715347040046765E-4,-3.62E-04,9.882807657556626,0.3381488169859914,0.1121054834604842,9.882807657556626,0.3381488169859914,0.1121054834604842,-92.35851189,-67.43342484,-4.58854187,-30.875,7.56145873134142E-5,-1.01E-04,1.1861111824084254E-5,45,1.5,3.229520320892334,46.500999450683594,0.6233072280883789,92.06587982177734,155.6999969482422,-86.9105722,40.4250522,Garage
64,-0.882195481,-0.017764281,0.003001338,0.4705385383471702,-0.011428961,-0.03417429,2.161422190156955,-0.021587223,0.012001962708399712,7.635590555914904E-4,-141.444967,-25.52630342,-31.46355537,0.011275023,2.588266597210782E-4,1.8308868685972343E-4,9.896932287123597,0.3375912666031458,0.11384782969083601,9.896932287123597,0.3375912666031458,0.11384782969083601,-92.36485573,-67.40646309,-4.583539882,-33.33333333,-5.49E-05,2.431527946542189E-4,0,45,1.5,3.229520320892334,46.500999450683594,0.6233072280883789,92.06587982177734,155.6999969482422,-86.9105722,40.4250522,Garage
65,-0.88196378,-0.017845489,0.003111391,0.47096887775338614,-0.011328055,-0.034415696,2.1604448969547567,-0.021555859,0.011805798159912229,7.870531822286117E-4,-141.4202014,-25.52788937,-31.42732147,0.018708807,0.001507181,4.6986563561054377E-4,9.941893596093632,0.3438985605263016,0.11240168237715091,9.941893596093632,0.3438985605263016,0.11240168237715091,-92.33996819,-67.40743874,-4.547427855,-30.66666667,-2.35E-05,4.69882484489622E-5,2.3494125343859196E-5,45,1.5,3.229520320892334,46.500999450683594,0.6233072280883789,92.06587982177734,155.6999969482422,-86.9105722,40.4250522,Garage
66,-0.881898088,-0.017843936,0.003156032,0.4710916694506858,-0.011252594,-0.034453449,2.160167423266809,-0.021587223,0.011990101555886777,6.805312750833923E-4,-141.4999893,-25.55668142,-31.40694742,-0.006075072,3.568253760198945E-4,0.001325276,9.923895076640601,0.34264407,0.11302892693761483,9.923895076640601,0.34264407,0.11302892693761483,-92.42012192,-67.43732872,-4.525955873,-30.625,-5.49E-05,2.3129168056964296E-4,-8.30E-05,45,1.5,5.771445274353027,63.18700027,10.04986858,99.09806060791016,155.1999969482422,-86.9098849,40.4249678,Garage
67,-0.882029498,-0.017796086,0.003094628,0.47084778518352693,-0.011306311,-0.034314286,2.160721441,-0.02144489,0.011835907160946466,6.686701626941851E-4,-141.4109288,-25.54740942,-31.54846731,-0.01125557,-0.00129613,6.455034740920206E-4,9.902870733761093,0.33906935690676127,0.11269497683326017,9.902870733761093,0.33906935690676127,0.11269497683326017,-92.33118423,-67.42769104,-4.668451929,-28.77777778,8.747569744212968E-5,7.709722911703934E-5,-9.49E-05,45,1.5,5.771445274353027,63.18700027,10.04986858,99.09806060791016,155.1999969482422,-86.9098849,40.4249678,Garage
68,-0.882150992,-0.017770752,0.003027472,0.4706215311601324,-0.011392152,-0.034209239,2.1612342422448316,-0.021646528,0.011942657171884209,7.398368302479531E-4,-141.4222757,-25.53045143,-31.47209545,-0.010876267,-0.001383381,-3.29E-05,9.877836126,0.3370598511209766,0.11256720541605672,9.877836126,0.3370598511209766,0.11256720541605672,-92.34240837,-67.41061073,-4.593909907,-31.125,-1.14E-04,1.8384723327330595E-4,-2.37E-05,45,1.5,5.771445274353027,63.18700027,10.04986858,99.09806060791016,155.1999969482422,-86.9098849,40.4249678,Garage
69,-0.882085723,-0.017740444,0.003087576,0.4707445754009543,-0.011262277,-0.034210792,2.1609578526135786,-0.021575362,0.012073129379344218,6.805312762136381E-4,-141.3932382,-25.53069548,-31.48185541,0.014897735,0.002299193,6.261995622833955E-4,9.911123165717491,0.34170772837331664,0.11192197897113286,9.911123165717491,0.34170772837331664,0.11192197897113286,-92.31349319,-67.41048866,-4.601595883,-30.33333333,-4.30E-05,3.143194655987244E-4,-8.30E-05,45,1.5,5.771445274353027,63.18700027,10.04986858,99.09806060791016,155.1999969482422,-86.9098849,40.4249678,Garage
70,-0.881911858,-0.017801268,0.003170212,0.47106740139063125,-0.011186374,-0.034391845,2.1602246992796372,-0.021646528,0.012049407146654083,6.805312705624089E-4,-141.4583876,-25.54753147,-31.49027344,0.011015688,0.00248054,0.001601144,9.933271833993857,0.34218234894345106,0.11266013032313689,9.933271833993857,0.34218234894345106,0.11266013032313689,-92.37827583,-67.42793495,-4.610867906,-29.875,-1.14E-04,2.905972442110476E-4,-8.30E-05,45,1.5,5.771445274353027,63.18700027,10.04986858,99.09806060791016,155.1999969482422,-86.9098849,40.4249678,Garage
71,-0.881842916,-0.017926188,0.003147737,0.47119187556424186,-0.011348782,-0.034589441,2.1599361873367457,-0.021456751,0.011752879373656893,7.87281278109413E-4,-141.4671716,-25.52703537,-31.42280748,0.002615919,0.001850282,6.614035194359936E-4,9.938858930347035,0.3451849945540567,0.11315089095275378,9.938858930347035,0.3451849945540567,0.11315089095275378,-92.38718208,-67.40670654,-4.543157907,-29.66666667,7.561458674829128E-5,-5.93E-06,2.3722223648168508E-5,45,1.5,5.777010440826416,59.513999938964844,6.007413387298584,278.5312805175781,155.6999969482422,-86.9105995,40.4250511,Garage
72,-0.88193061,-0.017853819,0.003128925,0.4710305532784138,-0.011307386,-0.034446109,2.160304984,-0.021480473,0.011942657153800275,6.330868232660719E-4,-141.4568019,-25.53740557,-31.51394142,-0.023951225,-0.004454421,1.8395194150869128E-5,9.891661635,0.3400189361525971,0.11225939071872859,9.891661635,0.3400189361525971,0.11225939071872859,-92.37681221,-67.41719872,-4.634169884,-29,5.189236083963108E-5,1.8384723553379763E-4,-1.30E-04,45,1.5,5.777010440826416,59.513999938964844,6.007413387298584,278.5312805175781,155.6999969482422,-86.9105995,40.4250511,Garage
73,-0.882104744,-0.017714642,0.003089005,0.4707099119058022,-0.01123408,-0.034167042,2.161037660562075,-0.021414895,0.012017245274574425,7.400649270633808E-4,-141.4250816,-25.45346945,-31.57006144,-0.001414987,8.656011464504095E-4,9.040400170936034E-4,9.889155610093793,0.33774227120922606,0.11209677134468718,9.889155610093793,0.33774227120922606,0.11209677134468718,-92.34521446,-67.33167717,-4.690533919,-29.88888889,1.1747062448053979E-4,2.584353854987197E-4,-2.35E-05,45,1.5,5.777010440826416,59.513999938964844,6.007413387298584,278.5312805175781,155.6999969482422,-86.9105995,40.4250511,Garage
74,-0.8820924,-0.017736177,0.003085451,0.470732241,-0.01126153,-0.034201409,2.160985962858478,-0.021480473,0.011859629352947751,7.042534976013149E-4,-141.2321991,-25.60804361,-31.91837137,0.005973112,0.00120561,0.001555188,9.903553221989604,0.33988245410247914,0.11301150375488893,9.903553221989604,0.33988245410247914,0.11301150375488893,-92.15208839,-67.48820297,-5.038111906,-29,5.189236310012277E-5,1.0081945276520785E-4,-5.93E-05,45,1.5,5.777010440826416,59.513999938964844,6.007413387298584,278.5312805175781,155.6999969482422,-86.9105995,40.4250511,Garage
75,-0.881934632,-0.017762792,0.003176086,0.47102613414375527,-0.011138113,-0.034330033,2.160320140783069,-0.02176514,0.012132434920380705,5.026145920708992E-4,-141.2258548,-25.91792347,-31.24871342,0.020711713624232023,0.002545911,-1.94E-04,9.940975892891004,0.34328293185500264,0.11027021192520567,9.940975892891004,0.34328293185500264,0.11027021192520567,-92.14574471,-67.79832726,-4.369673939,-27.75,-2.33E-04,3.7362501793767065E-4,-2.61E-04,45,1.5,5.777010440826416,59.513999938964844,6.007413387298584,278.5312805175781,155.6999969482422,-86.9105995,40.4250511,Garage
76,-0.881743606,-0.01784178,0.003260134,0.4713801061644137,-0.011078186,-0.034544145,2.159515394747836,-0.021587223,0.011800323735054546,8.110034978017211E-4,-141.4757117,-25.47286762,-31.37608149,-0.002662983,3.52729582092137E-4,3.144521157718399E-5,9.942416228,0.3440379477241664,0.110183094,9.942416228,0.3440379477241664,0.110183094,-92.3957222,-67.35278267,-4.496919904,-27,-5.49E-05,4.1513900426261635E-5,4.7444447296337016E-5,45,1.5,2.960578441619873,60.529998779296875,3.4322822093963623,312.7036133,155.6999969482422,-86.91069,40.4251703,Garage
77,-0.881855085,-0.017783486,0.003217788,0.47117400921664193,-0.011089809,-0.034403979,2.159984678898043,-0.021622806,0.012262907168529565,6.449479401762625E-4,-141.4489937,-25.4850675,-31.50845139,-0.020057567,-0.002145143,0.00184391,9.892084103,0.33993324336524194,0.11184432665602519,9.892084103,0.33993324336524194,0.11184432665602519,-92.36900368,-67.36498299,-4.628679876,-28.25,-9.04E-05,5.040972547840725E-4,-1.19E-04,45,1.5,2.960578441619873,60.529998779296875,3.4322822093963623,312.7036133,155.6999969482422,-86.91069,40.4251703,Garage
78,-0.881806315,-0.017820164,0.003265558,0.4712623207314501,-0.011044194,-0.034512612,2.159782817062822,-0.021907473,0.012227324,0.001997115,-141.3477338,-25.4937295,-31.65314341,-2.47E-04,0.001470532,0.00952935,9.897100717118644,0.34356751509951156,0.11829662192737213,9.897100717118644,0.34356751509951156,0.11829662192737213,-92.26786629,-67.37376686,-4.773737917,-24,-3.75E-04,4.6851390800936127E-4,0.001233556,45,1.5,2.960578441619873,60.529998779296875,3.4322822093963623,312.7036133,155.6999969482422,-86.91069,40.4251703,Garage
79,-0.881037724,-0.018355045,0.003581459,0.47267528587174645,-0.011048638,-0.03573672,2.1565587775221147,-0.021587223,0.011895213,6.568090531305925E-4,-141.0300458,-25.92292545,-31.74720535,0.001927533,0.001232485,-0.004455314,9.894246119897343,0.35496536548276547,0.10549327752833228,9.894246119897343,0.35496536548276547,0.10549327752833228,-91.95005592,-67.80308525,-4.866579938,-25.375,-5.49E-05,1.3640278597696893E-4,-1.07E-04,45,1.5,2.960578441619873,60.529998779296875,3.4322822093963623,312.7036133,155.6999969482422,-86.91069,40.4251703,Garage
80,-0.880904702,-0.018499414,0.003590447,0.47291815107308544,-0.01117933,-0.035996192,2.156001121095083,-0.021682112,0.012013823756930029,7.872812764140442E-4,-141.2184138,-25.74785555,-31.32374342,0.024717830917210255,0.002871691,-2.58E-04,9.950535505720712,0.35991943895238115,0.11076968371217112,9.950535505720712,0.35991943895238115,0.11076968371217112,-92.13830215,-67.62777069,-4.443605866,-27.44444444,-1.50E-04,2.550139064783031E-4,2.3722223648168508E-5,45,1.5,2.960578441619873,60.529998779296875,3.4322822093963623,312.7036133,155.6999969482422,-86.91069,40.4251703,Garage
81,-0.880817644,-0.018579671,0.003604147,0.473077163,-0.011237661,-0.036148567,2.155636590260726,-0.021567606,0.011864533464316852,5.991001727614695E-4,-141.3781114,-25.62024345,-31.45684542,-0.006807263,-5.46E-04,2.50588242824261E-4,9.932516773927558,0.35836874990208634,0.11158278,9.932516773927558,0.35836874990208634,0.11158278,-92.29775604,-67.50113457,-4.577683907,-27.625,-3.52E-05,1.0572355509234163E-4,-1.64E-04,45,1.5,4.906405448913574,70.875,1.5573965311050415,237.1955566,155.6999969482422,-86.9107515,40.4250903,Garage
82,-0.881018471,-0.018528293,0.003498999,0.472705873,-0.011359126,-0.03596329,2.156479835510254,-0.021646528,0.011871490460250851,6.330868215707031E-4,-141.3954347,-25.61682749,-31.43598345,-0.012634583,-0.001095127,3.412232815640644E-4,9.906753253010871,0.35585977064753044,0.11297665681075124,9.906753253010871,0.35585977064753044,0.11297665681075124,-92.31544571,-67.49832809,-4.556089883,-29.77777778,-1.14E-04,1.1268056911027548E-4,-1.30E-04,45,1.5,4.906405448913574,70.875,1.5573965311050415,237.1955566,155.6999969482422,-86.9107515,40.4250903,Garage
83,-0.881140984,-0.018437912,0.003467281,0.47248123311302037,-0.011320328,-0.035776895,2.156993433109765,-0.021729556,0.011859629303216934,7.754201595038537E-4,-141.4449667,-25.63634747,-31.43903337,-0.014044206,-0.00146005,0.001059638,9.884125987,0.3528658380207506,0.11306377386366859,9.884125987,0.3528658380207506,0.11306377386366859,-92.36461189,-67.51626205,-4.558773861,-27.375,-1.97E-04,1.0081943242078268E-4,1.1861111824084254E-5,45,1.5,4.906405448913574,70.875,1.5573965311050415,237.1955566,155.6999969482422,-86.9107515,40.4250903,Garage
84,-0.881333427,-0.018359793,0.003382194,0.47212585430700804,-0.011382049,-0.035563342,2.157801952176881,-0.021527917,0.011646129303946368,6.212257125722335E-4,-141.435085,-25.63988548,-31.42036739,0.012186587435527913,-2.51E-05,-7.83E-04,9.902104146272233,0.3518843166168454,0.11175701423611456,9.902104146272233,0.3518843166168454,0.11175701423611456,-92.3550959,-67.52065392,-4.540595889,-27.77777778,4.447912978171145E-6,-1.13E-04,-1.42E-04,45,1.5,4.906405448913574,70.875,1.5573965311050415,237.1955566,155.6999969482422,-86.9107515,40.4250903,Garage
85,-0.881099337,-0.018502982,0.003459159,0.4725563884938805,-0.011399313,-0.03588293,2.1568195588380386,-0.021527917,0.011895212692940988,9.414757227805416E-4,-141.4414293,-25.61231352,-31.42988344,0.011913623624634974,0.00379942,0.001146918,9.935123324394226,0.35989548108325553,0.11427741322236565,9.935123324394226,0.35989548108325553,0.11427741322236565,-92.36180588,-67.49198486,-4.550111928,-28.5,4.447914673539909E-6,1.364027904979523E-4,1.779166773612638E-4,45,1.5,4.906405448913574,70.875,1.5573965311050415,237.1955566,155.6999969482422,-86.9107515,40.4250903,Garage
86,-0.880946078,-0.01853646,0.003542625,0.47284013148650383,-0.011295438,-0.036017231,2.1561755578494766,-0.021492334,0.011966379354843527,5.381979241524144E-4,-141.3782327,-25.69990948,-31.42378347,0.006704173,-0.001166871,-3.41E-04,9.940215110778809,0.3576195416519943,0.11178314949846963,9.940215110778809,0.3576195416519943,0.11178314949846963,-92.29873199,-67.57933647,-4.54425591,-29.33333333,4.0031251841161433E-5,2.075694501399994E-4,-2.25E-04,45,1.5,3.403841018676758,52.400001525878906,2.644958496,124.51872253417969,155.6999969482422,-86.9105526,40.4250117,Garage
87,-0.88106303,-0.018426538,0.003525401,0.47262663227840535,-0.011212984,-0.03580994,2.156665153873777,-0.021504195,0.011883352,6.686701508266037E-4,-141.4248378,-25.62609961,-31.43854542,-0.019613423,4.7613984172784006E-5,5.797029120250813E-5,9.905725322,0.35432069755873635,0.11128077225633037,9.905725322,0.35432069755873635,0.11128077225633037,-92.34472603,-67.50699112,-4.5576759,-28.22222222,2.8170138321708416E-5,1.2454167641337636E-4,-9.49E-05,45,1.5,3.403841018676758,52.400001525878906,2.644958496,124.51872253417969,155.6999969482422,-86.9105526,40.4250117,Garage
88,-0.881237742,-0.018369024,0.003440801,0.4723036477287996,-0.011294624,-0.035632703,2.1573992585672914,-0.021456751,0.011859629366510702,6.923923823864931E-4,-141.4238609,-25.6646513,-31.38876945,-0.01040917,-0.001891198,-1.51E-05,9.884099876996382,0.35096958395346856,0.11184413141561943,9.884099876996382,0.35096958395346856,0.11184413141561943,-92.34350647,-67.54407814,-4.50985188,-30.625,7.561458674829128E-5,1.0081943694176604E-4,-7.12E-05,45,1.5,3.403841018676758,52.400001525878906,2.644958496,124.51872253417969,155.6999969482422,-86.9105526,40.4250117,Garage
89,-0.881259433,-0.018334012,0.003445598,0.4722644394406906,-0.011251474,-0.035576033,2.1574899577177487,-0.021720318,0.012216945317609666,5.756060474176103E-4,-141.4337434,-25.63756763,-31.47551134,0.010033020606407752,0.002559276,8.784212315311799E-4,9.903933599157241,0.35541837525020525,0.11202998217014433,9.903933599157241,0.35541837525020525,0.11202998217014433,-92.35363174,-67.51711761,-4.594031873,-29.22222222,-1.88E-04,4.5813545539903524E-4,-1.88E-04,45,1.5,3.403841018676758,52.400001525878906,2.644958496,124.51872253417969,155.6999969482422,-86.9105526,40.4250117,Garage
90,-0.881172518,-0.018310368,0.003516453,0.47242702355662597,-0.011110727,-0.035599244,2.157123542526393,-0.021682112,0.012156157157591824,4.788923650319932E-4,-141.396411,-25.65708748,-31.48234341,0.012263686911573687,0.002478978,0.002909475,9.924374210024343,0.3555490526470166,0.11298827212123037,9.924374210024343,0.3555490526470166,0.11298827212123037,-92.31629974,-67.537612,-4.602571898,-28.625,-1.50E-04,3.973472506278059E-4,-2.85E-04,45,1.5,3.403841018676758,52.400001525878906,2.644958496,124.51872253417969,155.6999969482422,-86.9105526,40.4250117,Garage
91,-0.880988141,-0.01846017,0.003556683,0.47276467432096164,-0.011195307,-0.035897039,2.156350837170499,-0.021516056,0.011966379381969426,5.263368151539449E-4,-141.4563136,-25.60035748,-31.49442131,0.009592686,0.002447695,0.001541846,9.950294513146854,0.35951870014366594,0.11279661381996951,9.950294513146854,0.35951870014366594,0.11279661381996951,-92.3764463,-67.47905281,-4.614771886,-30.22222222,1.6309025932501242E-5,2.075694637029495E-4,-2.37E-04,45,1.5,6.0494585037231445,61.96699905395508,1.5267494916915894,260.9908447265625,155.6999969482422,-86.9106866,40.4250144,Garage
92,-0.881062361,-0.018448338,0.003513837,0.47262707699849765,-0.011254044,-0.035837431,2.156662850704008,-0.021516056,0.011812184905651415,7.754201617643454E-4,-141.4492369,-25.60523746,-31.43305532,-0.024834901,-0.003081949,1.2757404915337422E-4,9.894696235656738,0.3526393331370307,0.11171055122197253,9.894696235656738,0.3526393331370307,0.11171055122197253,-92.36924789,-67.48564056,-4.552795892,-29.5,1.63090248022554E-5,5.33750099898542E-5,1.1861111824084254E-5,45,1.5,6.0494585037231445,61.96699905395508,1.5267494916915894,260.9908447265625,155.6999969482422,-86.9106866,40.4250144,Garage
93,-0.881160601,-0.018381715,0.003485154,0.4724467353334705,-0.011234217,-0.035695169,2.1570747893990823,-0.021575362,0.012001962690315778,5.975034877938191E-4,-141.4675378,-25.60047953,-31.46867941,2.331409639525182E-4,9.401614226183845E-4,1.1604069506080406E-4,9.896024236312279,0.3544454829624066,0.11150208427212559,9.896024236312279,0.3544454829624066,0.11150208427212559,-92.38730354,-67.47929634,-4.587565885,-30.11111111,-4.30E-05,2.431527901332355E-4,-1.66E-04,45,1.5,6.0494585037231445,61.96699905395508,1.5267494916915894,260.9908447265625,155.6999969482422,-86.9106866,40.4250144,Garage
94,-0.881244984,-0.018319818,0.00346304,0.47229188130897226,-0.011208377,-0.03556714,2.157428732196104,-0.021729556,0.012001962726483646,4.551701492955456E-4,-141.428253,-25.66428549,-31.50027746,-0.005637058,0.001192769,0.001379541,9.889803145695659,0.3523576544615829,0.11152470097379777,9.889803145695659,0.3523576544615829,0.11152470097379777,-92.34814209,-67.54395653,-4.620383906,-32.11111111,-1.97E-04,2.4315280143569396E-4,-3.08E-04,45,1.5,6.0494585037231445,61.96699905395508,1.5267494916915894,260.9908447265625,155.6999969482422,-86.9106866,40.4250144,Garage
95,-0.88111182,-0.018362037,0.003528415,0.4725381031777095,-0.011143045,-0.035700232,2.1568692054563354,-0.021587223,0.012156157,6.80531269997286E-4,-141.4255701,-25.61011744,-31.49002949,0.02653458,0.003234892,0.001620112,9.93911446,0.3589466280728868,0.11285469221692641,9.93911446,0.3589466280728868,0.11285469221692641,-92.34558006,-67.48991066,-4.610867901,-32,-5.49E-05,3.973472506278059E-4,-8.30E-05,45,1.5,6.0494585037231445,61.96699905395508,1.5267494916915894,260.9908447265625,155.6999969482422,-86.9106866,40.4250144,Garage
96,-0.880865483,-0.018501887,0.003615241,0.47299108401085566,-0.011140852,-0.036023102,2.1558360220159143,-0.021527917,0.011847768277291533,7.635590544612446E-4,-141.3695714,-25.59596537,-31.48600327,-0.001121734,-1.72E-04,8.712956699931506E-4,9.943778158391563,0.35745401767272394,0.11087422535836118,9.943778158391563,0.35745401767272394,0.11087422535836118,-92.28946007,-67.47649078,-4.605865908,-33.55555556,4.447913543294066E-6,8.895834546210696E-5,0,45,1.5,3.6451778411865234,82.78700256347656,1.4345033168792725,288.7967529296875,155.6999969482422,-86.9107661,40.4250466,Garage
97,-0.881088622,-0.018468646,0.003485192,0.47257753203694636,-0.011321761,-0.035846764,2.156773736843696,-0.021356159,0.011770556994284002,7.753061117210353E-4,-141.3744513,-25.61353346,-31.46745945,-0.014388598,-0.001549654,-6.68E-04,9.903378949581999,0.3544281424538603,0.1119835191560023,9.903378949581999,0.3544281424538603,0.1119835191560023,-92.29458412,-67.49381462,-4.587687907,-31.375,1.7620593616112063E-4,1.1747064910685787E-5,1.1747062671929598E-5,45,1.5,3.6451778411865234,82.78700256347656,1.4345033168792725,288.7967529296875,155.6999969482422,-86.9107661,40.4250466,Garage
98,-0.881224823,-0.018417131,0.003422934,0.4723259716936686,-0.011372561,-0.035700341,2.157345906044673,-0.021456751,0.011669852,6.923923812562473E-4,-141.4499687,-25.64281357,-31.4352515,-0.008647734,-3.94E-04,-4.45E-04,9.89459172,0.35338854297850897,0.11213742637807883,9.89459172,0.35338854297850897,0.11213742637807883,-92.37046791,-67.52285118,-4.55499186,-30.33333333,7.561458392267668E-5,-8.90E-05,-7.12E-05,45,1.5,3.6451778411865234,82.78700256347656,1.4345033168792725,288.7967529296875,155.6999969482422,-86.9107661,40.4250466,Garage
99,-0.881366177,-0.018348192,0.003366741,0.472065202,-0.01139592,-0.035529085,2.1579397951514974,-0.021575362,0.011859629321300868,7.161146054695388E-4,-141.4192253,-25.63805538,-31.39560143,-0.003246196,-4.40E-04,0.001499811,9.882345940302876,0.35100443256132813,0.1141237008195479,9.882345940302876,0.35100443256132813,0.1141237008195479,-92.33948051,-67.5195565,-4.516073899,-32.375,-4.30E-05,1.0081945502569953E-4,-4.74E-05,45,1.5,3.6451778411865234,82.78700256347656,1.4345033168792725,288.7967529296875,155.6999969482422,-86.9107661,40.4250466,Garage
100,-0.881112016,-0.018452737,0.003478356,0.4725344875483837,-0.011317045,-0.035812835,2.1568720271286455,-0.021717695,0.012049407119528182,5.619201534518122E-4,-141.4860811,-25.59645355,-31.42585733,0.028045163571255877,0.004854752,-0.001003383,9.943072513469215,0.36017207917079186,0.111164616,9.943072513469215,0.36017207917079186,0.111164616,-92.40670212,-67.47649139,-4.546085892,-32.22222222,-1.85E-04,2.905972329085892E-4,-2.02E-04,45,1.5,3.6451778411865234,82.78700256347656,1.4345033168792725,288.7967529296875,155.6999969482422,-86.9107661,40.4250466,Garage
101,-0.880851748,-0.018544548,0.003600857,0.4730150858754093,-0.011207614,-0.036084358,2.155779169601144,-0.021492334,0.011741018225664942,0.001000781,-141.4264236,-25.62683149,-31.42902946,-0.003896639,-8.32E-04,0.00126015,9.931344270706177,0.35758893850904244,0.11201688586376034,9.931344270706177,0.35758893850904244,0.11201688586376034,-92.34631172,-67.50650253,-4.54864789,-29.25,4.0031250710915594E-5,-1.78E-05,2.3722223648168508E-4,45,1.5,3.6451778411865234,86.32599639892578,0.6502726674079895,299.1882019042969,155.6999969482422,-86.9107788,40.4250574,Garage
102,-0.880977025,-0.018499528,0.003542382,0.4727838933467865,-0.011258602,-0.03595264,2.1563050052494677,-0.021563501,0.011764740458355077,5.619201557123039E-4,-141.4666835,-25.64793749,-31.41914738,-0.007909932,-4.31E-04,-0.001229952,9.914204653026989,0.356852908,0.11116752028465271,9.914204653026989,0.356852908,0.11116752028465271,-92.38669388,-67.52760826,-4.537911897,-30.88888889,-3.11E-05,5.930551391058755E-6,-2.02E-04,45,1.5,3.6451778411865234,86.32599639892578,0.6502726674079895,299.1882019042969,155.6999969482422,-86.9107788,40.4250574,Garage
103,-0.881227697,-0.01836991,0.003447001,0.47232230687604365,-0.011285281,-0.035639891,2.1573569728332815,-0.021433028,0.011883352,6.923923778655098E-4,-141.4280099,-25.6425695,-31.50296141,-0.018428914,-0.002457171,-1.69E-04,9.879973383783136,0.3501274491687423,0.11131271549943582,9.879973383783136,0.3501274491687423,0.11131271549943582,-92.34777634,-67.52150871,-4.623555903,-30.625,9.933681039645979E-5,1.2454167189239297E-4,-7.12E-05,45,1.5,3.6451778411865234,86.32599639892578,0.6502726674079895,299.1882019042969,155.6999969482422,-86.9107788,40.4250574,Garage
104,-0.881213043,-0.018347907,0.003468852,0.47235034420652294,-0.011227065,-0.035621398,2.1572948335443884,-0.021599084,0.011990102,6.92392383516739E-4,-141.4212993,-25.61267946,-31.46001757,0.008986686,0.001482916,0.001151351,9.900059792601947,0.3542481015608149,0.11255558941838811,9.900059792601947,0.3542481015608149,0.11255558941838811,-92.34130966,-67.49344833,-4.579147897,-28.66666667,-6.67E-05,2.3129168509062632E-4,-7.12E-05,45,1.5,3.6451778411865234,86.32599639892578,0.6502726674079895,299.1882019042969,155.6999969482422,-86.9107788,40.4250574,Garage
105,-0.881060472,-0.018410425,0.00353595,0.47263190666070354,-0.011179369,-0.035791454,2.1566541424164405,-0.021520618,0.011852786401644923,6.695825499124252E-4,-141.4327676,-25.64269157,-31.41573141,0.015226676,0.001260811,4.5176394856893097E-4,9.932885586636738,0.35662930740893467,0.11090326457492357,9.932885586636738,0.35662930740893467,0.11090326457492357,-92.35277802,-67.5217524,-4.5352279,-31,1.1747057634728173E-5,9.397650585294916E-5,-9.40E-05,45,1.5,3.6451778411865234,86.32599639892578,0.6502726674079895,299.1882019042969,155.6999969482422,-86.9107788,40.4250574,Garage
106,-0.880889452,-0.018498344,0.003601256,0.47294667334232515,-0.011160337,-0.036004187,2.155936734190265,-0.02155164,0.011883351572074936,8.584479473585498E-4,-141.4145898,-25.65159756,-31.46318937,0.010394475992443492,6.04801964991301E-4,-1.85E-04,9.947492219869373,0.3586039676249606,0.11067095143919431,9.947492219869373,0.3586039676249606,0.11067095143919431,-92.33447792,-67.53187889,-4.583051891,-29.5,-1.93E-05,1.2454167189239297E-4,9.488889459267403E-5,45,1.5,10.223139762878418,92.90000153,14.797677993774414,85.75609588623047,156.09999084472656,-86.9094405,40.4251261,Garage
107,-0.88089099,-0.018498143,0.003600321,0.4729437842531112,-0.011161702,-0.036002979,2.1559432640816403,-0.021527917,0.011918934948236039,6.805312728229006E-4,-141.3651799,-25.65440348,-31.40426352,-0.0228315,-0.002196223,4.547832226290286E-4,9.907758027604483,0.355557763,0.11126044522790075,9.907758027604483,0.355557763,0.11126044522790075,-92.28494629,-67.53370834,-4.524491911,-32.44444444,4.447914108416988E-6,1.6012500736464573E-4,-8.30E-05,45,1.5,10.223139762878418,92.90000153,14.797677993774414,85.75609588623047,156.09999084472656,-86.9094405,40.4251261,Garage
108,-0.881105448,-0.018400738,0.003511371,0.4725486190573683,-0.011210141,-0.0357522,2.1568431507036525,-0.021421167,0.011978240484751544,7.279757144680084E-4,-141.3484651,-25.63293158,-31.39987139,-0.009347101,8.881152833549722E-4,0.001120549,9.885249841560437,0.3548666329927815,0.11199513457498504,9.885249841560437,0.3548666329927815,0.11199513457498504,-92.2687204,-67.51382271,-4.520221901,-29.875,1.1119792222054404E-4,2.1943056422457532E-4,-3.56E-05,45,1.5,10.223139762878418,92.90000153,14.797677993774414,85.75609588623047,156.09999084472656,-86.9094405,40.4251261,Garage
109,-0.881074577,-0.018365676,0.003551192,0.47260724225090545,-0.011109134,-0.035727305,2.156712566764609,-0.021516056,0.011907073804765071,8.465868287529905E-4,-141.2753876,-25.51617735,-31.41170534,0.003050443,-0.002191551,1.3633079609824615E-4,9.897700924139757,0.35265374255294984,0.11013598933529395,9.897700924139757,0.35265374255294984,0.11013598933529395,-92.1953978,-67.39645927,-4.531933913,-30.77777778,1.6309025932501242E-5,1.4826390006154487E-4,8.302778276858978E-5,45,1.5,10.223139762878418,92.90000153,14.797677993774414,85.75609588623047,156.09999084472656,-86.9094405,40.4251261,Garage
110,-0.881100622,-0.018366243,0.003533543,0.47255874866420783,-0.011138833,-0.035712241,2.156822234681509,-0.021800723,0.012061268244915217,4.670312616847528E-4,-141.1765668,-25.42919151,-31.51686941,0.017212155,0.004499148,0.001750873,9.921325137314287,0.35737851797377024,0.1118238038989236,9.921325137314287,0.35737851797377024,0.1118238038989236,-92.09645638,-67.30861832,-4.637097907,-32.75,-2.68E-04,3.0245835377464014E-4,-2.97E-04,45,1.5,10.223139762878418,92.90000153,14.797677993774414,85.75609588623047,156.09999084472656,-86.9094405,40.4251261,Garage
111,-0.880874535,-0.018431075,0.003648195,0.47297667357528095,-0.011015126,-0.035929684,2.155872759309787,-0.021326278,0.011966379,6.449479328296644E-4,-141.1547292,-25.48201756,-31.60068336,0.011392797081215867,-8.32E-05,8.00172102104113E-5,9.952861609968167,0.3579331636428833,0.10952390712297079,9.952861609968167,0.3579331636428833,0.10952390712297079,-92.07449615,-67.36242096,-4.721033926,-34.55555556,2.0608681681321807E-4,2.0756945466098275E-4,-1.19E-04,45,1.5,4.1344099044799805,74.5,6.4014668464660645,257.3515625,155.6999969482422,-86.9103537,40.4250144,Garage
112,-0.880983319,-0.018416287,0.003584043,0.47277514622049427,-0.011105951,-0.035845457,2.156329698932981,-0.021693973,0.011907073804765071,8.110035034529504E-4,-141.2258556,-25.51422544,-31.66680748,-0.023087687,-3.40E-04,0.001779438,9.899682285716233,0.35497698144426626,0.11161472232451716,9.899682285716233,0.35497698144426626,0.11161472232451716,-92.14562218,-67.39401878,-4.786425924,-33.11111111,-1.62E-04,1.4826390006154487E-4,4.7444447296337016E-5,45,1.5,4.1344099044799805,74.5,6.4014668464660645,257.3515625,155.6999969482422,-86.9103537,40.4250144,Garage
113,-0.881105028,-0.018368125,0.00352959,0.47255054402809876,-0.011147233,-0.03571191,2.1568407072470737,-0.021638089,0.011923268750811426,7.165708084357902E-4,-141.166075,-25.50653957,-31.63069551,-0.002433777,-0.001994541,-4.67E-04,9.897536249994074,0.3516781382190371,0.11028182674741861,9.897536249994074,0.3516781382190371,0.11028182674741861,-92.08608612,-67.38657692,-4.751167912,-31.625,-1.06E-04,1.6445887964577056E-4,-4.70E-05,45,1.5,4.1344099044799805,74.5,6.4014668464660645,257.3515625,155.6999969482422,-86.9103537,40.4250144,Garage
114,-0.881177072,-0.018301545,0.003518257,0.47241881084673615,-0.011098886,-0.035585506,2.157142609068491,-0.021539778,0.011954518261103376,8.228646152770346E-4,-141.1985266,-25.52752356,-31.70230932,-0.007329552,-7.71E-04,6.346770932952177E-4,9.883638187519555,0.3514138824731401,0.11037765660332245,9.883638187519555,0.3514138824731401,0.11037765660332245,-92.11841599,-67.40719482,-4.821561942,-31.88888889,-7.41E-06,1.957083450973902E-4,5.930555912042127E-5,45,1.5,4.1344099044799805,74.5,6.4014668464660645,257.3515625,155.6999969482422,-86.9103537,40.4250144,Garage
115,-0.881048404,-0.018382979,0.003559075,0.4726552864880238,-0.011113572,-0.035764653,2.1566028432938658,-0.021421167,0.011907073800244089,7.754201657202059E-4,-141.1574136,-25.51276146,-31.66631941,0.025262647,0.003460382,0.001422272,9.934845739197963,0.3580986867541248,0.11151308497612916,9.934845739197963,0.3580986867541248,0.11151308497612916,-92.07730232,-67.39340904,-4.786059928,-33.875,1.1119792052517528E-4,1.4826390684301993E-4,1.1861111824084254E-5,45,1.5,4.1344099044799805,74.5,6.4014668464660645,257.3515625,155.6999969482422,-86.9103537,40.4250144,Garage
116,-0.880876835,-0.018495364,0.003611275,0.47297020878606627,-0.011140825,-0.036008111,2.155883645548404,-0.021350001,0.011918934939194072,7.635590567217362E-4,-141.2357381,-25.59389141,-31.61947132,0.00218572,-5.90E-04,6.325832993081472E-4,9.941684482167068,0.35753823194688966,0.11133013889916892,9.941684482167068,0.35753823194688966,0.11133013889916892,-92.15574875,-67.47453835,-4.74079793,-34.33333333,1.823645920348037E-4,1.601250141461208E-4,0,45,1.5,12.383040428161621,57.03499984741211,14.029282569885254,82.15230560302734,159.79998779296875,-86.9092658,40.4251344,Garage
117,-0.881049012,-0.018439391,0.003527607,0.47265214682782736,-0.011222353,-0.035834365,2.1566066163257487,-0.021610945,0.011847768241123668,6.805312666065484E-4,-141.2509868,-25.63622555,-31.69523344,-0.010443928,-0.001310725,-1.30E-05,9.914088322566105,0.3552306262919536,0.11182707078898182,9.914088322566105,0.3552306262919536,0.11182707078898182,-92.17075394,-67.51516518,-4.814729939,-22.5,-7.86E-05,8.89583409411236E-5,-8.30E-05,45,1.5,12.383040428161621,57.03499984741211,14.029282569885254,82.15230560302734,159.79998779296875,-86.9092658,40.4251344,Garage
118,-0.881266884,-0.018324205,0.003446038,0.47225095288267416,-0.011240866,-0.03555932,2.1575210626842907,-0.021610945,0.012061268240394234,5.856423787953495E-4,-141.3195522,-25.71491543,-31.5801874,-0.016016655,-3.48E-04,0.001610225,9.888650292331732,0.3518030069117407,0.1119370561599442,9.888650292331732,0.3518030069117407,0.1119370561599442,-92.24004982,-67.59458672,-4.699073925,-23,-7.86E-05,3.024583515141485E-4,-1.78E-04,45,1.5,12.383040428161621,57.03499984741211,14.029282569885254,82.15230560302734,159.79998779296875,-86.9092658,40.4251344,Garage
119,-0.881278675,-0.018306402,0.003447964,0.4722295660995743,-0.011219782,-0.03553005,2.157570440792343,-0.021599084,0.011966379391011393,5.975034844030817E-4,-141.3777452,-25.70552141,-31.48490541,0.001440345,1.6270216228892503E-4,0.001524935,9.888746159747967,0.3519452983893237,0.11368521084574965,9.888746159747967,0.3519452983893237,0.11368521084574965,-92.29787819,-67.5860466,-4.604523902,-29,-6.67E-05,2.0756945692147446E-4,-1.66E-04,45,1.5,12.383040428161621,57.03499984741211,14.029282569885254,82.15230560302734,159.79998779296875,-86.9092658,40.4251344,Garage
120,-0.881008471,-0.018570868,0.003481759,0.4727221406200557,-0.011430989,-0.036021704,2.1564399825716483,-0.021634667,0.012108713,-9.44E-04,-141.448139,-25.65903946,-31.46038328,0.023402093683631674,0.013858097126183001,0.007252453,9.940278932886216,0.36933101323044415,0.1195685349368644,9.940278932886216,0.36933101323044415,0.1195685349368644,-92.36814987,-67.53956482,-4.580001888,-30.55555556,-1.02E-04,3.499027988104855E-4,-0.001708,45,1.5,12.383040428161621,57.03499984741211,14.029282569885254,82.15230560302734,159.79998779296875,-86.9092658,40.4251344,Garage
121,-0.882224881,-0.017564436,0.003222803,0.47048878870331323,-0.010848204,-0.034030575,2.1615482454116526,-0.02167333,0.011852786455375072,5.756060748423736E-4,-141.4937663,-25.60523735,-31.49832544,0.00359626,-0.009720653,-0.007203242,9.936053803823526,0.3294835468229738,0.10067278626363597,9.936053803823526,0.3294835468229738,0.10067278626363597,-92.41389999,-67.4844207,-4.618797913,-31.55555556,-1.41E-04,9.397651033046153E-5,-1.88E-04,45,1.5,3.2435083389282227,71.02300262451172,12.45337200164795,265.7127990722656,155.6999969482422,-86.91042,40.4250582,Garage
122,-0.882169641,-0.017715881,0.003177315,0.47058753567991907,-0.011074681,-0.034253957,2.1613170012687015,-0.021421167,0.012179879399323926,6.686701604336935E-4,-141.5121895,-25.70466745,-31.68132526,-0.011261357,0.002432651,0.002938469,9.922144010229019,0.34288219268460873,0.11291567406174048,9.922144010229019,0.34288219268460873,0.11291567406174048,-92.43256653,-67.58372849,-4.801309948,-31.375,1.1119792052517528E-4,4.210694742759744E-4,-9.49E-05,45,1.5,3.2435083389282227,71.02300262451172,12.45337200164795,265.7127990722656,155.6999969482422,-86.91042,40.4250582,Garage
123,-0.882483912,-0.017564187,0.003049891,0.47000438669352856,-0.011134279,-0.033873631,2.1626431803101474,-0.021599084,0.012049407137612116,4.5517014477456226E-4,-141.3416336,-25.75712746,-31.53041134,-0.017957474,-0.003065522,0.001199657,9.880606429090777,0.33241649738793233,0.11137950606644154,9.880606429090777,0.33241649738793233,0.11137950606644154,-92.26127838,-67.63692047,-4.65027389,-30.66666667,-6.67E-05,2.905972396900642E-4,-3.08E-04,45,1.5,3.2435083389282227,71.02300262451172,12.45337200164795,265.7127990722656,155.6999969482422,-86.91042,40.4250582,Garage
124,-0.882491827,-0.017541527,0.003057056,0.46999050112603935,-0.011099654,-0.033840552,2.162675894579841,-0.021516056,0.012156157157591824,6.923923812562473E-4,-141.3728647,-25.52959749,-31.53297344,0.006016222,0.002189925,0.001200329,9.899812957615529,0.33719343004874813,0.11097876586526342,9.899812957615529,0.33719343004874813,0.11097876586526342,-92.29275383,-67.40975647,-4.653445911,-31.875,1.6309027062747086E-5,3.973472461068225E-4,-7.12E-05,45,1.5,3.2435083389282227,71.02300262451172,12.45337200164795,265.7127990722656,155.6999969482422,-86.91042,40.4250582,Garage
125,-0.882337898,-0.017643796,0.003104169,0.4702751685693426,-0.011123798,-0.034061804,2.162026940040218,-0.021563501,0.012144296,6.686701570429559E-4,-141.4707089,-25.54265148,-31.45355139,0.011795673555540807,8.176608571728456E-4,0.002795459,9.921269682737497,0.3388777550023336,0.11279340281795996,9.921269682737497,0.3388777550023336,0.11279340281795996,-92.39071999,-67.42244484,-4.572681923,-30.55555556,-3.11E-05,3.8548613428273824E-4,-9.49E-05,45,1.5,3.2435083389282227,71.02300262451172,12.45337200164795,265.7127990722656,155.6999969482422,-86.91042,40.4250582,Garage
126,-0.882105286,-0.017779708,0.003185449,0.4707057910058105,-0.011125059,-0.034372734,2.1610461739660467,-0.021563501,0.011930795983203407,7.635590544612446E-4,-141.4812018,-25.60731152,-31.4820994,0.016380402648333205,0.00313872,5.345158278942108E-4,9.953198479217233,0.3453272850189394,0.11174249489909237,9.953198479217233,0.3453272850189394,0.11174249489909237,-92.40060219,-67.48747101,-4.602327881,-30.125,-3.11E-05,1.7198612370971337E-4,0,45,1.5,13.588141441345215,70.08999633789062,9.657134056091309,101.64506530761719,158.09999084472656,-86.9094253,40.4249549,Garage
127,-0.882182659,-0.017795245,0.003125247,0.4705605281209483,-0.0112403,-0.034345347,2.1613735712847664,-0.021421167,0.011812185,7.754201679806976E-4,-141.4888867,-25.5705895,-31.46221344,-0.022517825,-0.002453273,4.2673533113257397E-4,9.911434386540385,0.3381720476069497,0.11121688591479098,9.911434386540385,0.3381720476069497,0.11121688591479098,-92.40865395,-67.45038277,-4.580855899,-32.33333333,1.1119792278566696E-4,-1.84E-04,1.3047220350414948E-4,45,1.5,13.588141441345215,70.08999633789062,9.657134056091309,101.64506530761719,158.09999084472656,-86.9094253,40.4249549,Garage
128,-0.882480793,-0.017753451,0.002948738,0.4700039720651015,-0.011490931,-0.034112614,2.162633546347757,-0.021539778,0.011717296015579724,7.991423888032515E-4,-141.4793707,-25.55131344,-31.51211138,-0.006448116,-0.00307922,-0.00257683,9.893020722472553,0.3356979168155818,0.11206773295998573,9.893020722472553,0.3356979168155818,0.11206773295998573,-92.39925995,-67.43135078,-4.632583895,-31,-7.41E-06,-3.47E-04,1.8829511856045393E-4,45,1.5,13.588141441345215,70.08999633789062,9.657134056091309,101.64506530761719,158.09999084472656,-86.9094253,40.4249549,Garage
129,-0.882497073,-0.017658023,0.002989943,0.46997672176131833,-0.011327298,-0.03398326,2.162700499479587,-0.021497124,0.011970257,6.46088425128255E-4,-141.5001112,-25.57241951,-31.4792935,-0.005644496,6.083207061657539E-4,-0.001324471,9.891220305729838,0.33616254211050794,0.1101424392602108,9.891220305729838,0.33616254211050794,0.1101424392602108,-92.42036591,-67.45209053,-4.598667889,-32.25,3.524118465765451E-5,-9.40E-05,3.524115219568977E-5,45,1.5,13.588141441345215,70.08999633789062,9.657134056091309,101.64506530761719,158.09999084472656,-86.9094253,40.4249549,Garage
130,-0.882360138,-0.017701906,0.003057581,0.4702316534171984,-0.011259052,-0.034121075,2.162122027387897,-0.021504195,0.011907073768597204,7.042534874291024E-4,-141.463756,-25.57851946,-31.48551537,0.021204142894559692,0.002469291,5.040255926766442E-4,9.923450794,0.3405096980842572,0.11196319151271894,9.923450794,0.3405096980842572,0.11196319151271894,-92.38352234,-67.45831306,-4.606353893,-31.33333333,2.8170137191462576E-5,-1.57E-04,9.340621379556732E-5,45,1.5,13.588141441345215,70.08999633789062,9.657134056091309,101.64506530761719,158.09999084472656,-86.9094253,40.4249549,Garage
131,-0.882113777,-0.017856028,0.003138034,0.4706873222462182,-0.011279963,-0.034462988,2.161083589479761,-0.021219528,0.011669851554720436,8.110035017575816E-4,-141.48474,-25.59279345,-31.47014341,0.011544644253925212,7.282611235831548E-4,-0.002050609,9.952992235572593,0.34350653368871187,0.11004080287027128,9.952992235572593,0.34350653368871187,0.11004080287027128,-92.40475021,-67.47234261,-4.590737882,-31.875,3.128368220997305E-4,-3.94E-04,2.0015623207990694E-4,45,1.5,4.951041221618652,58.492000579833984,6.787822246551514,228.39906311035156,155.1999969482422,-86.9100134,40.4247086,Garage
132,-0.882313499,-0.017869654,0.002997115,0.47031322584568874,-0.011526963,-0.034359207,2.161928216230522,-0.021516056,0.011693573782889589,7.872812747186755E-4,-141.58173,-25.57363955,-31.44305941,-0.016022932,-0.003545055,-0.001686865,9.912686014638364,0.3377684058205595,0.11271240023299328,9.912686014638364,0.3377684058205595,0.11271240023299328,-92.50173996,-67.45294495,-4.563775878,-30.88888889,1.6309027062747086E-5,-3.71E-04,1.7643400108514047E-4,45,1.5,4.951041221618652,58.492000579833984,6.787822246551514,228.39906311035156,155.1999969482422,-86.9100134,40.4247086,Garage
133,-0.882441544,-0.017763251,0.002969641,0.47007714978699544,-0.011466082,-0.034148627,2.1624676787737505,-0.021516056,0.011871490442166918,8.347257203196438E-4,-141.4797371,-25.58230148,-31.51467337,-0.008870764,-3.00E-04,-5.19E-04,9.898092068158663,0.33738511686141676,0.11308962907283925,9.898092068158663,0.33738511686141676,0.11308962907283925,-92.39950424,-67.46197243,-4.635145893,-29,1.630902819299293E-5,-1.93E-04,2.2387844838147748E-4,45,1.5,4.951041221618652,58.492000579833984,6.787822246551514,228.39906311035156,155.1999969482422,-86.9100134,40.4247086,Garage
134,-0.882514351,-0.017700761,0.002955061,0.469942917,-0.011427803,-0.034026339,2.1627744771901845,-0.021504195,0.012001962681273811,7.16114610555645E-4,-141.5315868,-25.58535152,-31.51955339,-0.010278044,-0.002613893,-0.001158872,9.877566078334178,0.33438825332424016,0.11120236693944746,9.877566078334178,0.33438825332424016,0.11120236693944746,-92.45123222,-67.46526619,-4.639781919,-30.55555556,2.817013945195426E-5,-6.23E-05,1.0526733805235584E-4,45,1.5,4.951041221618652,58.492000579833984,6.787822246551514,228.39906311035156,155.1999969482422,-86.9100134,40.4247086,Garage
135,-0.882364352,-0.017648699,0.00308385,0.4702256006523243,-0.011162308,-0.034051966,2.162138728262151,-0.021575362,0.012144296,5.500590427579738E-4,-141.46705,-25.57290752,-31.42902937,0.025313034798335105,0.003701665,-1.60E-04,9.929310863457838,0.3409539966039287,0.11085099329068823,9.929310863457838,0.3409539966039287,0.11085099329068823,-92.38718224,-67.45404236,-4.549379888,-30.875,-4.30E-05,8.006248107740601E-5,-6.08E-05,45,1.5,4.951041221618652,58.492000579833984,6.787822246551514,228.39906311035156,155.1999969482422,-86.9100134,40.4247086,Garage
136,-0.882186656,-0.017782544,0.003129536,0.4705535781036303,-0.011220464,-0.03432702,2.1613900360551854,-0.021516056,0.011954518215893542,8.22864611886297E-4,-141.510238,-25.57742146,-31.44208336,0.004884007,1.2869424032933504E-4,-2.68E-04,9.937697327,0.34110790129425456,0.11116171226773447,9.937697327,0.34110790129425456,0.11116171226773447,-92.43000412,-67.45758072,-4.562921901,-32.33333333,1.6309023672009556E-5,-1.10E-04,2.1201733994813076E-4,45,1.5,5.416631698608398,34.60499954223633,14.274168014526367,54.98056411743164,159.79998779296875,-86.9090674,40.4252242,Garage
137,-0.882278846,-0.017838778,0.003037164,0.47037915656199825,-0.011429728,-0.034341553,2.161780994672042,-0.021567606,0.011888027594138224,6.695825510318032E-4,-141.5176791,-25.5629034,-31.48100138,-0.00702637,-0.001390039,5.667064912044085E-4,9.926386694,0.3407216837394585,0.11408885416475315,9.926386694,0.3407216837394585,0.11408885416475315,-92.43744606,-67.44355049,-4.600863905,-31.44444444,-3.52E-05,-1.76E-04,5.873527865892706E-5,45,1.5,5.416631698608398,34.60499954223633,14.274168014526367,54.98056411743164,159.79998779296875,-86.9090674,40.4252242,Garage
138,-0.882459691,-0.017764371,0.002956884,0.4700431019357107,-0.011488355,-0.03413905,2.1625445143690385,-0.021539778,0.011812184896609448,7.87281278109413E-4,-141.513533,-25.59889359,-31.49454342,-0.019929793,-0.003171379,-0.00180516,9.887697849458862,0.33524490675879914,0.11197480740188395,9.887697849458862,0.33524490675879914,0.11197480740188395,-92.43329834,-67.47868683,-4.615381885,-31.375,-7.41E-06,-2.52E-04,1.7643400617124675E-4,45,1.5,5.416631698608398,34.60499954223633,14.274168014526367,54.98056411743164,159.79998779296875,-86.9090674,40.4252242,Garage
139,-0.882586461,-0.017661027,0.002928492,0.4698091317149042,-0.01143217,-0.033932953,2.163078942345184,-0.021527917,0.011871490491897736,6.212257125722335E-4,-141.4537514,-25.5974295,-31.50967154,0.002540098,1.0124630141026765E-4,-8.07E-04,9.891838777412488,0.33585763107804417,0.11219840887391451,9.891838777412488,0.33585763107804417,0.11219840887391451,-92.37388397,-67.47795502,-4.629899926,-30,4.447915238662831E-6,-1.93E-04,1.0378439503821354E-5,45,1.5,5.416631698608398,34.60499954223633,14.274168014526367,54.98056411743164,159.79998779296875,-86.9090674,40.4252242,Garage
140,-0.882432099,-0.017634458,0.003046304,0.47009922636365425,-0.011210306,-0.033993123,2.1624250712903956,-0.021670251,0.012262907177571532,6.330868232660719E-4,-141.4633888,-25.59901548,-31.43817938,0.011829839,0.002329153,-9.54E-04,9.917259651,0.33922616891490603,0.11004661067018232,9.917259651,0.33922616891490603,0.11004661067018232,-92.38303398,-67.47795441,-4.557431874,-27.875,-1.38E-04,1.986735767133317E-4,2.223955189302853E-5,45,1.5,5.416631698608398,34.60499954223633,14.274168014526367,54.98056411743164,159.79998779296875,-86.9090674,40.4252242,Garage
141,-0.8822088,-0.017734998,0.003140729,0.47051377927215354,-0.01115435,-0.034254152,2.161482653571564,-0.021575362,0.012037546039350982,6.449479350901561E-4,-141.4463091,-25.56912558,-31.54139139,0.016423429100258836,0.001627678,0.002086443,9.944225806456346,0.3413050901144743,0.11282216288292637,9.944225806456346,0.3413050901144743,0.11282216288292637,-92.36668594,-67.44965111,-4.660887899,-30,-4.30E-05,-2.67E-05,3.410065976125233E-5,45,1.5,5.416631698608398,34.60499954223633,14.274168014526367,54.98056411743164,159.79998779296875,-86.9090674,40.4252242,Garage
142,-0.882237301,-0.017837934,0.003065387,0.4704569236746112,-0.011382148,-0.034365614,2.1616053164583966,-0.021729556,0.011942657162842242,7.991423865427598E-4,-141.5304884,-25.59523344,-31.47465738,-0.01149797,-0.002973873,-7.34E-04,9.929996222,0.3406055260051801,0.11243072065334876,9.929996222,0.3406055260051801,0.11243072065334876,-92.45111031,-67.47429428,-4.59622788,-28.25,-1.97E-04,-1.22E-04,1.882951151697164E-4,45,1.5,3.570178747177124,56.099998474121094,15.719683647155762,261.2506408691406,155.6999969482422,-86.9102618,40.4250478,Garage
143,-0.882515686,-0.017744697,0.002930171,0.46993886440703014,-0.011512968,-0.034080567,2.162781118189247,-0.021575362,0.011859629384594636,6.330868255265636E-4,-141.5451292,-25.6107275,-31.45342949,-0.016168187,1.9776502859245227E-4,-3.05E-04,9.887755893966526,0.3353755831429102,0.11342385852510489,9.887755893966526,0.3353755831429102,0.11342385852510489,-92.46526215,-67.49088707,-4.573291883,-30.22222222,-4.30E-05,-2.05E-04,2.2239552458151453E-5,45,1.5,3.570178747177124,56.099998474121094,15.719683647155762,261.2506408691406,155.6999969482422,-86.9102618,40.4250478,Garage
144,-0.882501618,-0.017667656,0.002981654,0.4699678840567765,-0.011350647,-0.033992594,2.1627199279451834,-0.021610945,0.012168018242290008,7.398368319433219E-4,-141.5218266,-25.59474548,-31.46404343,0.002921762,-0.00125737,-6.05E-04,9.898927216,0.3374286467589221,0.11211709855395613,9.898927216,0.3374286467589221,0.11211709855395613,-92.44171593,-67.47466087,-4.583417902,-27.22222222,-7.86E-05,1.0378468325090351E-4,1.2898955717954098E-4,45,1.5,3.570178747177124,56.099998474121094,15.719683647155762,261.2506408691406,155.6999969482422,-86.9102618,40.4250478,Garage
145,-0.882499189,-0.017619992,0.003009302,0.46997406906806505,-0.011257197,-0.033934367,2.162708649268517,-0.021626342,0.012158210031115092,5.286178023267824E-4,-141.4896198,-25.58413155,-31.43927748,0.007886887,0.001448017,3.553356330555219E-4,9.905963453274328,0.3366939583160345,0.11146371862263356,9.905963453274328,0.3366939583160345,0.11146371862263356,-92.40962959,-67.46368073,-4.55974988,-29.125,-9.40E-05,9.397646219720348E-5,-8.22E-05,45,1.5,3.570178747177124,56.099998474121094,15.719683647155762,261.2506408691406,155.6999969482422,-86.9102618,40.4250478,Garage
146,-0.882314674,-0.017773212,0.003049032,0.4703143473389079,-0.011344501,-0.03423782,2.1619311490105195,-0.021492334,0.011681712702712387,8.703090603128799E-4,-141.4954765,-25.56570944,-31.45428339,0.021037055,0.001556122,-4.53E-04,9.955512861603673,0.3418658251322589,0.1122071201578506,9.955512861603673,0.3418658251322589,0.1122071201578506,-92.4153643,-67.44635689,-4.574755888,-29.11111111,4.003125240628436E-5,-3.83E-04,2.5946178724446775E-4,45,1.5,3.4213364124298096,62.33000183105469,11.195984840393066,262.2581787109375,155.6999969482422,-86.9108244,40.4249928,Garage
147,-0.882256914,-0.01789565,0.003020727,0.4704182379454085,-0.011513858,-0.03442594,2.1616894481251543,-0.021433028,0.011657990456459303,8.821701721369641E-4,-141.5453737,-25.61060555,-31.40926554,-0.017209877,-0.001255012,-0.001153329,9.920941779,0.34104982510353754,0.11322929753551206,9.920941779,0.34104982510353754,0.11322929753551206,-92.46562782,-67.49100891,-4.529493885,-29.875,9.933680983133686E-5,-4.06E-04,2.713228951126916E-4,45,1.5,3.4213364124298096,62.33000183105469,11.195984840393066,262.2581787109375,155.6999969482422,-86.9108244,40.4249928,Garage
148,-0.882389401,-0.017850069,0.002957078,0.4701718109325298,-0.011573696,-0.034288813,2.1622488544982614,-0.021539778,0.011788462672961278,8.465868349693427E-4,-141.5056018,-25.5979174,-31.49527542,-0.008482526,-0.002804814,-0.001174508,9.902107016554156,0.33718762293602655,0.11349064958037682,9.902107016554156,0.33718762293602655,0.11349064958037682,-92.42524612,-67.47771088,-4.61562592,-30.88888889,-7.41E-06,-2.76E-04,2.3573956020556174E-4,45,1.5,3.4213364124298096,62.33000183105469,11.195984840393066,262.2581787109375,155.6999969482422,-86.9108244,40.4249928,Garage
149,-0.882539174,-0.017748977,0.002912109,0.46989470141605266,-0.011547197,-0.034071703,2.162880666047624,-0.021444889,0.011835907147383517,7.516979381161769E-4,-141.5070651,-25.57717741,-31.44549938,-0.01081662,-0.002936105,-0.002143533,9.885598742,0.3354179397798501,0.1121405537884969,9.885598742,0.3354179397798501,0.1121405537884969,-92.42707581,-67.456483,-4.565483885,-31,8.747569800725261E-5,-2.28E-04,1.4085065939653556E-4,45,1.5,3.4213364124298096,62.33000183105469,11.195984840393066,262.2581787109375,155.6999969482422,-86.9108244,40.4249928,Garage
150,-0.882583489,-0.017714484,0.002901295,0.4698128494822863,-0.011530661,-0.034001714,2.1630675144565914,-0.021433028,0.011812184914693382,6.923923812562473E-4,-141.4715634,-25.61109348,-31.41377943,0.016113725680749393,0.001387379,-0.001885121,9.911989036115628,0.3382359351058608,0.11200675111517165,9.911989036115628,0.3382359351058608,0.11200675111517165,-92.39157417,-67.49113068,-4.534007888,-30.33333333,9.933680870109102E-5,-2.52E-04,8.154509971099137E-5,45,1.5,3.4213364124298096,62.33000183105469,11.195984840393066,262.2581787109375,155.6999969482422,-86.9108244,40.4249928,Garage
151,-0.882286612,-0.017808303,0.003048619,0.4703656660700307,-0.011380285,-0.034298712,2.161813208200399,-0.021255112,0.011681712693670422,9.296146149123178E-4,-141.5247554,-25.56021946,-31.46733749,0.014278161872937841,0.002775203,-0.00225255,9.944579634,0.3416509347633251,0.1109148797768991,9.944579634,0.3416509347633251,0.1109148797768991,-92.44464439,-67.44001266,-4.587443895,-30.33333333,2.772534871926007E-4,-3.83E-04,3.1876734410439734E-4,45,1.5,3.4213364124298096,62.33000183105469,11.195984840393066,262.2581787109375,155.6999969482422,-86.9108244,40.4249928,Garage
152,-0.88229328,-0.017887581,0.003000828,0.4703504483676651,-0.011538748,-0.034393855,2.1618430660766306,-0.021409306,0.011634268223769168,6.686701581732018E-4,-141.5019414,-25.60767759,-31.50100939,-0.008213543,-0.001287004,-0.001394125,9.927870537470845,0.34008572518246843,0.11274434409095245,9.927870537470845,0.34008572518246843,0.11274434409095245,-92.42170792,-67.48820251,-4.621115894,-31.375,1.2305903291438244E-4,-4.30E-04,5.782287549769994E-5,45,1.5,4.951041221618652,56.099998474121094,0.9527460932731628,313.7304688,155.6999969482422,-86.9106693,40.4250559,Garage
153,-0.882393393,-0.017842333,0.00295862,0.47016455634282184,-0.011563425,-0.03427671,2.1622656537936282,-0.021579353,0.011594350978087347,0.001057236,-141.565015,-25.58949942,-31.47892742,-0.015428662,-0.003566387,-0.002359159,9.899092720550241,0.33765224866496707,0.11266013082044507,9.899092720550241,0.33765224866496707,0.11266013082044507,-92.48527008,-67.46843857,-4.598789926,-31.77777778,-4.70E-05,-4.70E-04,4.4638833787757903E-4,45,1.5,4.951041221618652,56.099998474121094,0.9527460932731628,313.7304688,155.6999969482422,-86.9106693,40.4250559,Garage
154,-0.881485053,-0.018292177,0.003313698,0.4718361586621664,-0.011432721,-0.035382988,2.158455793140004,-0.021587223,0.011800323784785363,0.003716976,-141.4741245,-25.67245945,-31.49051752,-0.005105296,0.004294516,7.463883500076035E-4,9.881904518720015,0.35432069802778837,0.1137694240981731,9.881904518720015,0.35432069802778837,0.1137694240981731,-92.39413612,-67.55237473,-4.610379891,-31.125,-5.49E-05,-2.64E-04,0.003106129,45,1.5,4.951041221618652,56.099998474121094,0.9527460932731628,313.7304688,155.6999969482422,-86.9106693,40.4250559,Garage
155,-0.879953342,-0.019152859,0.003860254,0.4746575610151569,-0.011396879,-0.03738067,2.152023507553397,-0.021492334,0.012203601568720295,0.001214281,-141.4441132,-25.73821749,-31.45806541,0.015974924,-0.008323108,-0.003755306,9.917489042559874,0.3620073495848665,0.10905928076109261,9.917489042559874,0.3620073495848665,0.10905928076109261,-92.36412422,-67.61837685,-4.57792789,-31.77777778,4.003124505968638E-5,1.3936799837873108E-4,6.034340211009444E-4,45,1.5,4.951041221618652,56.099998474121094,0.9527460932731628,313.7304688,155.6999969482422,-86.9106693,40.4250559,Garage
156,-0.879440445,-0.019379312,0.004073738,0.4755966755950335,-0.011276711,-0.037969932,2.149881939286167,-0.02144489,0.011824046021996482,0.001119392,-141.4148329,-25.72345549,-31.44305943,0.013243138211444743,0.003458206,-1.79E-04,9.937877405,0.3805197810085074,0.11173087886525589,9.937877405,0.3805197810085074,0.11173087886525589,-92.3346003,-67.60300491,-4.562555904,-30.875,8.747569461651508E-5,-2.40E-04,5.085451282036391E-4,45,1.5,3.8875794410705566,58.04999923706055,1.8063064813613892,99.0546875,155.6999969482422,-86.9105339,40.4250334,Garage
157,-0.879382519,-0.019464597,0.004064596,0.47570033501652836,-0.011378564,-0.038109953,2.1496416920597112,-0.021302556,0.011812184932777315,5.500590450184655E-4,-141.439843,-25.72394348,-31.46135946,-0.002203821,0.001327332,7.295080469649973E-5,9.937501714779781,0.3803092489162317,0.11316152998747733,9.937501714779781,0.3803092489162317,0.11316152998747733,-92.35973206,-67.60288292,-4.5807339,-28.44444444,2.2980903933114073E-4,-2.52E-04,-6.08E-05,45,1.5,3.8875794410705566,58.04999923706055,1.8063064813613892,99.0546875,155.6999969482422,-86.9105339,40.4250334,Garage
158,-0.87977051,-0.019218764,0.003944689,0.4749932766539379,-0.011325142,-0.037572444,2.151259054258032,-0.021433028,0.011883351608242804,0.001024504,-141.4350851,-25.69027145,-31.47282747,-0.022890554,-0.008622467,-0.002880704,9.888673550874284,0.36549785125602796,0.1095616572301437,9.888673550874284,0.36549785125602796,0.1095616572301437,-92.35546204,-67.56921082,-4.592323918,-29.25,9.933680983133686E-5,-1.81E-04,4.136562290899817E-4,45,1.5,3.8875794410705566,58.04999923706055,1.8063064813613892,99.0546875,155.6999969482422,-86.9105339,40.4250334,Garage
159,-0.879806589,-0.019168773,0.00394864,0.47492861950281756,-0.011267753,-0.037489061,2.1514087278866074,-0.021421167,0.011847768,5.026145915057763E-4,-141.2884413,-25.73565548,-31.53809738,7.526156971755537E-4,8.572373286034297E-4,-8.06E-04,9.895465804535208,0.37188935930867795,0.11063900819608888,9.895465804535208,0.37188935930867795,0.11063900819608888,-92.20857376,-67.61593674,-4.657349906,-28.88888889,1.1119791939492944E-4,-2.16E-04,-1.08E-04,45,1.5,3.8875794410705566,58.04999923706055,1.8063064813613892,99.0546875,155.6999969482422,-86.9105339,40.4250334,Garage
160,-0.879990446,-0.019081345,0.003875484,0.4745920618760933,-0.011299052,-0.03726999,2.152176509783106,-0.021527917,0.011776601574700145,8.703090546616506E-4,-141.3289458,-25.7363875,-31.37961937,0.003305167,-9.69E-04,-0.002436321,9.900059783342973,0.3677135357289638,0.10978235401556764,9.900059783342973,0.3677135357289638,0.10978235401556764,-92.24920021,-67.61593674,-4.500579891,-29.25,4.447907892064852E-6,-2.88E-04,2.5946177820250103E-4,45,1.5,3.8875794410705566,58.04999923706055,1.8063064813613892,99.0546875,155.6999969482422,-86.9105339,40.4250334,Garage
161,-0.879687576,-0.019181344,0.004020381,0.47514795139431953,-0.011162755,-0.037576593,2.150911037738507,-0.021555859,0.011982004099991173,6.695825527108704E-4,-141.3251627,-25.72040546,-31.47685335,0.02151536,0.004395938,-1.93E-04,9.944138212,0.3764746332342185,0.10993045483471699,9.944138212,0.3764746332342185,0.10993045483471699,-92.2451741,-67.6006868,-4.597203884,-30.55555556,-2.35E-05,-8.22E-05,5.8735271942658495E-5,45,1.5,3.8875794410705566,58.04999923706055,1.8063064813613892,99.0546875,155.6999969482422,-86.9105339,40.4250334,Garage
162,-0.879552433,-0.019266532,0.004062441,0.4753943019121596,-0.011180378,-0.037763359,2.150347593918587,-0.021456751,0.011990101632743496,7.161145941670803E-4,-141.3584695,-25.76981539,-31.50271744,-0.009360878,-0.00188462,3.583050757935904E-4,9.931999900966014,0.3737536703498618,0.1114811423659614,9.931999900966014,0.3737536703498618,0.1114811423659614,-92.27860214,-67.64997467,-4.623433905,-30.44444444,7.561458561804543E-5,-7.41E-05,1.0526732279403696E-4,45,1.5,16.624631881713867,77.73100280761719,7.5726799964904785,131.19349670410156,155.1999969482422,-86.9101299,40.4247481,Garage
163,-0.879708488,-0.019203143,0.003994405,0.475108419,-0.011227623,-0.037590776,2.150999201154246,-0.021539778,0.012144296027683807,9.296146199984241E-4,-141.4608272,-25.7707914,-31.44379135,-0.022259296,-0.00960575,9.603430562227675E-4,9.885763788686216,0.3630643727492939,0.11217227353922372,9.885763788686216,0.3630643727492939,0.11217227353922372,-92.38132591,-67.65095062,-4.563531895,-30.25,-7.41E-06,8.006244038855567E-5,3.18767339583414E-4,45,1.5,16.624631881713867,77.73100280761719,7.5726799964904785,131.19349670410156,155.1999969482422,-86.9101299,40.4247481,Garage
164,-0.880195809,-0.019617996,0.003395888,0.47416763832268205,-0.012645421,-0.037771475,2.153090458471798,-0.021670251,0.011930795980377792,0.001119392,-141.4045857,-25.76505741,-31.44330349,0.038596246,0.014972262590834238,-0.035037255,9.928015727441288,0.38876688948751076,0.08999801,9.928015727441288,0.38876688948751076,0.08999801,-92.32447411,-67.64497223,-4.563287878,-29.88888889,-1.38E-04,-1.33E-04,5.085451988440043E-4,45,1.5,16.624631881713867,77.73100280761719,7.5726799964904785,131.19349670410156,155.1999969482422,-86.9101299,40.4247481,Garage
165,-0.880975782,-0.019640038,0.002835636,0.47273994765235383,-0.013584374,-0.0372965,2.1563304720573053,-0.021255112,0.011883351490697235,3.9586462351737673E-4,-141.4447226,-25.73858335,-31.44147341,-0.002725879,-0.003952329,-0.008237163,9.876703317348774,0.3654173794728614,0.1255369091497694,9.876703317348774,0.3654173794728614,0.1255369091497694,-92.36449013,-67.61910866,-4.561335888,-31.875,2.772534928438299E-4,-1.81E-04,-2.15E-04,45,1.5,16.624631881713867,77.73100280761719,7.5726799964904785,131.19349670410156,155.1999969482422,-86.9101299,40.4247481,Garage
166,-0.879587055,-0.019365215,0.003906022,0.47532728574808364,-0.0115469,-0.037789127,2.150491385783964,-0.021468612,0.011752879332968043,8.3472572540575E-4,-141.3829918,-25.7501733,-31.48600344,0.023145028,0.004513875,-0.005295494,9.950082528938367,0.38011904422519277,0.10993335761346863,9.950082528938367,0.38011904422519277,0.10993335761346863,-92.30336815,-67.63130806,-4.605987921,-29.55555556,6.375347209859242E-5,-3.11E-04,2.2387843990463366E-4,45,1.5,16.624631881713867,77.73100280761719,7.5726799964904785,131.19349670410156,155.1999969482422,-86.9101299,40.4247481,Garage
167,-0.879273693,-0.019383453,0.004102724,0.4759045269304109,-0.011242915,-0.038000888,2.149182051130869,-0.021326278,0.011871490446687902,8.347257197545209E-4,-141.429473,-25.75578554,-31.44000944,-0.010231898,-0.002009763,-0.00254016,9.926055556362115,0.37586481189264836,0.10873404251935992,9.926055556362115,0.37586481189264836,0.10873404251935992,-92.34972809,-67.63521294,-4.559505916,-28.375,2.0608681794346393E-4,-1.93E-04,2.2387843764414198E-4,45,1.5,8.091035842895508,64.09999847,4.765704632,320.44537353515625,155.1999969482422,-86.9105066,40.4250636,Garage
168,-0.879451093,-0.019265248,0.004051334,0.4755818716530661,-0.011206774,-0.03774815,2.1499207042953343,-0.021433028,0.011693573796452538,7.872812820652735E-4,-141.4267891,-25.75261339,-31.45660145,-0.008659224,-0.002952879,-0.001404822,9.906570286,0.369789832,0.10941355830528637,9.906570286,0.369789832,0.10941355830528637,-92.34692223,-67.63289459,-4.576463904,-28.44444444,9.933680983133686E-5,-3.71E-04,1.7643399260829665E-4,45,1.5,8.091035842895508,64.09999847,4.765704632,320.44537353515625,155.1999969482422,-86.9105066,40.4250636,Garage
169,-0.87964103,-0.019190339,0.003967486,0.4752342359950909,-0.011268097,-0.037541018,2.150713148025366,-0.02167333,0.011864533428496752,7.988002482586756E-4,-141.4108066,-25.7854314,-31.4513555,-0.015109979,-4.10E-04,-0.001152031,9.880899763,0.3721100569350048,0.11063610465781203,9.880899763,0.3721100569350048,0.11063610465781203,-92.3308181,-67.66668831,-4.571217895,-28.55555556,-1.41E-04,-2.00E-04,1.8795295069979218E-4,45,1.5,8.091035842895508,64.09999847,4.765704632,320.44537353515625,155.1999969482422,-86.9105066,40.4250636,Garage
170,-0.87964901,-0.019183706,0.003965894,0.47521975376073594,-0.011263963,-0.037528014,2.150746366352711,-0.021444889,0.011729157118361842,0.001048226,-141.3877493,-25.77920948,-31.50540138,0.013188214,-0.002714278,-0.002142931,9.904726353,0.36870667338371277,0.10925674682609665,9.904726353,0.36870667338371277,0.10925674682609665,-92.30788208,-67.65973495,-4.625995908,-29,8.747569857237554E-5,-3.35E-04,4.3737845273815023E-4,45,1.5,8.091035842895508,64.09999847,4.765704632,320.44537353515625,155.1999969482422,-86.9105066,40.4250636,Garage
171,-0.87942129,-0.019352764,0.00402237,0.47563360790604525,-0.0113434,-0.037873876,2.1497980159463235,-0.021551639,0.011574962651085796,9.533368453419614E-4,-141.3771352,-25.78811544,-31.49149347,0.011143814,0.00107179,-4.55E-04,9.932545829,0.3770496079933296,0.11205902074020609,9.932545829,0.3770496079933296,0.11205902074020609,-92.29690224,-67.66717697,-4.611843915,-30.22222222,-1.93E-05,-4.89E-04,3.424895530593699E-4,45,1.5,8.091035842895508,64.09999847,4.765704632,320.44537353515625,155.1999969482422,-86.9105066,40.4250636,Garage
172,-0.879443713,-0.019357437,0.004004622,0.4755914474575265,-0.011377672,-0.037865682,2.1498928949670884,-0.021516056,0.012001962708399712,-6.00E-04,-141.402511,-25.7598114,-31.4099975,0.013178825378417969,0.005574904,-0.001611874,9.949164918,0.3820269121562393,0.11140564107562154,9.949164918,0.3820269121562393,0.11140564107562154,-92.32227783,-67.63948273,-4.52851789,-28.25,1.6309022541763712E-5,8.006247768666848E-5,-0.001282483,45,1.5,30.565101623535156,122.4000015258789,10.651213645935059,74.17415618896484,154.29998779296875,-86.9096861,40.4251817,Garage
173,-0.8815503,-0.018051654,0.003327466,0.4717303630217765,-0.011173077,-0.03497313,2.158710984350408,-0.021527917,0.011835907156425483,-0.001181663,-141.2614796,-25.50373358,-31.49905739,-0.02991931,-0.010256645,-7.43E-04,9.888509273529053,0.3372068046950377,0.10986564670187923,9.888509273529053,0.3372068046950377,0.10986564670187923,-92.18161232,-67.38340477,-4.617699914,-29.11111111,4.447909587433616E-6,7.70972178145809E-5,-0.001945222,45,1.5,30.565101623535156,122.4000015258789,10.651213645935059,74.17415618896484,154.29998779296875,-86.9096861,40.4251817,Garage
174,-0.882306822,-0.017631667,0.00305389,0.4703343400677431,-0.011203362,-0.033992345,2.1618922752084084,-0.021622806,0.011907074,5.619201647542706E-4,-141.2906372,-25.63561533,-31.59860933,-0.004289914,0.002116192,0.001611019,9.887552641,0.3395049422979355,0.11252364660929708,9.887552641,0.3395049422979355,0.11252364660929708,-92.21089188,-67.51467659,-4.71920393,-28.625,-9.04E-05,1.4826389101957812E-4,-2.02E-04,45,1.5,30.565101623535156,122.4000015258789,10.651213645935059,74.17415618896484,154.29998779296875,-86.9096861,40.4251817,Garage
175,-0.882177865,-0.01772059,0.00309148,0.47057259603611473,-0.011230012,-0.034181626,2.1613488613980487,-0.021492334,0.011966379,7.398368449411491E-4,-141.4222746,-25.64025143,-31.52211544,0.006734172,0.002865201,7.358994515775476E-4,9.906364181666698,0.3385001908517578,0.11213452211644465,9.906364181666698,0.3385001908517578,0.11213452211644465,-92.34240807,-67.52028877,-4.642343903,-27.11111111,4.0031251841161433E-5,2.075694953498331E-4,-2.37E-05,45,1.5,30.565101623535156,122.4000015258789,10.651213645935059,74.17415618896484,154.29998779296875,-86.9096861,40.4251817,Garage
176,-0.881958267,-0.017783115,0.003203955,0.4709809358837535,-0.01110634,-0.034392722,2.1604223505964555,-0.021456751,0.011942657085985523,8.347257446199294E-4,-141.4371597,-25.6960054,-31.53394943,0.018159690412502844,7.243026228784357E-4,9.666273677812039E-4,9.935458461057793,0.34391888889294225,0.11027021171921837,9.935458461057793,0.34391888889294225,0.11027021171921837,-92.35704803,-67.57750656,-4.653201876,-27.875,7.56145873134142E-5,1.83847240054781E-4,7.116667094450552E-5,45,1.5,30.565101623535156,122.4000015258789,10.651213645935059,74.17415618896484,154.29998779296875,-86.9096861,40.4251817,Garage
177,-0.881845525,-0.017855061,0.003239824,0.4711890449890724,-0.011119062,-0.034550836,2.1599478263121386,-0.021602848,0.011876280473258633,8.340414480279343E-4,-141.5052351,-25.6192675,-31.48917547,0.005551833,0.001104742,7.927922818523187E-5,9.948348906433697,0.34443868826893925,0.11120527074898331,9.948348906433697,0.34443868826893925,0.11120527074898331,-92.42549019,-67.49881683,-4.609281912,-26.55555556,-7.05E-05,1.1747063567432073E-4,7.048237603157759E-5,45,1.5,4.468328475952148,73.64299774169922,3.2649004459381104,84.72811889648438,156.09999084472656,-86.9097252,40.4251293,Garage
178,-0.88202673,-0.017773335,0.003163569,0.47085327749113437,-0.011163439,-0.034339047,2.160711448169449,-0.021717695,0.012073129297966518,6.56809049739855E-4,-141.4176398,-25.58266743,-31.47599937,-0.0240906,-0.002137991,0.003654512,9.891191186,0.33851180681325854,0.11432116739090206,9.891191186,0.33851180681325854,0.11432116739090206,-92.33801575,-67.46319244,-4.5961059,-27.88888889,-1.85E-04,3.143194814221662E-4,-1.07E-04,45,1.5,4.468328475952148,73.64299774169922,3.2649004459381104,84.72811889648438,156.09999084472656,-86.9097252,40.4251293,Garage
179,-0.882189465,-0.01776691,0.003058405,0.4705493322853903,-0.011331141,-0.03423252,2.1613988181919725,-0.021682112,0.011741018198539042,7.161146207278576E-4,-141.4654633,-25.56936951,-31.51296543,-0.002037724,-7.63E-04,-0.001120739,9.896548919307376,0.33825045462372233,0.11101070897726034,9.896548919307376,0.33825045462372233,0.11101070897726034,-92.38535225,-67.44965027,-4.633681903,-27.625,-1.50E-04,-8.15E-05,1.6309005022953146E-5,45,1.5,4.468328475952148,73.64299774169922,3.2649004459381104,84.72811889648438,156.09999084472656,-86.9097252,40.4251293,Garage
180,-0.882187314,-0.017760789,0.003063186,0.47055354714393616,-0.011317099,-0.034226168,2.1613896124571275,-0.021539778,0.011990102,8.228646305353534E-4,-141.4015356,-25.57083351,-31.50649952,-0.001220786,-7.53E-05,-8.45E-05,9.893061968,0.3403531364523448,0.11143306077260953,9.893061968,0.3403531364523448,0.11143306077260953,-92.32203384,-67.45160286,-4.626727915,-27.44444444,-7.41E-06,7.857984153427256E-5,2.120173201688285E-4,45,1.5,4.468328475952148,73.64299774169922,3.2649004459381104,84.72811889648438,156.09999084472656,-86.9097252,40.4251293,Garage
181,-0.881994539,-0.017895923,0.003117965,0.4709092670852698,-0.01136172,-0.034511638,2.1605779337651523,-0.021516056,0.011812184887567481,6.21225723874692E-4,-141.4487488,-25.54936152,-31.51894339,0.025641284,0.002496558,-5.03E-04,9.944765508,0.3448597554442952,0.11289534692480727,9.944765508,0.3448597554442952,0.11289534692480727,-92.36912598,-67.42915466,-4.639537897,-27.375,1.6309027627870006E-5,-9.93E-05,1.037842255013371E-5,45,1.5,4.468328475952148,73.64299774169922,3.2649004459381104,84.72811889648438,156.09999084472656,-86.9097252,40.4251293,Garage
182,-0.881844802,-0.017993154,0.003164646,0.47118565006163515,-0.011381914,-0.0347236,2.1599476013368775,-0.021409306,0.011634268219248184,8.228646209282637E-4,-141.4899855,-25.56351345,-31.48417332,-0.005263819,5.569946997374007E-4,-2.03E-04,9.939189957183542,0.34334100985411303,0.11313927549760318,9.939189957183542,0.34334100985411303,0.11313927549760318,-92.4102401,-67.44452667,-4.603669906,-28,1.2305903460975122E-4,-2.77E-04,2.120173252549348E-4,45,1.5,5.311017990112305,60,9.137789726257324,267.74932861328125,155.6999969482422,-86.9105437,40.4251022,Garage
183,-0.881978531,-0.017961673,0.003092668,0.4709369583615979,-0.011469447,-0.034603434,2.1605115909020878,-0.021610945,0.011824045976786648,8.703090704850925E-4,-141.4552151,-25.54899549,-31.47038742,-0.013461974,-0.003182718,-5.90E-04,9.905797930597101,0.34011476392884854,0.11241620170061016,9.905797930597101,0.34011476392884854,0.11241620170061016,-92.37559227,-67.42842262,-4.590615897,-26.625,-7.86E-05,-8.75E-05,2.5946177085590304E-4,45,1.5,5.311017990112305,60,9.137789726257324,267.74932861328125,155.6999969482422,-86.9105437,40.4251022,Garage
184,-0.882050053,-0.017881216,0.003088974,0.47080606852586454,-0.011394957,-0.034459702,2.160812061566573,-0.0215911,0.011864533,7.635590675188444E-4,-141.4499698,-25.52337555,-31.50161943,-0.010729872,-0.003381372,-9.67E-04,9.889753795364529,0.33925811136231837,0.1121490411641239,9.889753795364529,0.33925811136231837,0.1121490411641239,-92.36973633,-67.40316841,-4.622213874,-21.66666667,-5.87E-05,-4.70E-05,1.5271176716151575E-4,45,1.5,5.311017990112305,60,9.137789726257324,267.74932861328125,155.6999969482422,-86.9105437,40.4251022,Garage
185,-0.882182077,-0.017835481,0.003025843,0.4705607963418498,-0.011453692,-0.034322725,2.1613690112400983,-0.021527917,0.011598684906380849,7.754201809785248E-4,-141.4908403,-25.55460743,-31.41926943,0.004416568,-8.56E-04,-2.69E-04,9.891150548620132,0.3386511954578381,0.11295632886201894,9.891150548620132,0.3386511954578381,0.11295632886201894,-92.41072792,-67.43342461,-4.538887897,-27,4.447915803785753E-6,-3.13E-04,1.645728785237207E-4,45,1.5,5.311017990112305,60,9.137789726257324,267.74932861328125,155.6999969482422,-86.9105437,40.4251022,Garage
186,-0.881975345,-0.017911297,0.003122365,0.4709445952790455,-0.01136984,-0.034542467,2.1604972024565763,-0.021563501,0.011942657153800275,7.754201753272955E-4,-141.408856,-25.50373348,-31.48527132,0.019809954,0.002791385,-0.001452549,9.938478543920425,0.3455770224043467,0.11130110018895668,9.938478543920425,0.3455770224043467,0.11130110018895668,-92.32898781,-67.3837709,-4.604523916,-26.75,-3.11E-05,3.113541797309824E-5,1.64572876263229E-4,45,1.5,5.311017990112305,60,9.137789726257324,267.74932861328125,155.6999969482422,-86.9105437,40.4251022,Garage
187,-0.88188098,-0.018015961,0.003128015,0.4711173055241409,-0.011465386,-0.034730179,2.1601007910608088,-0.021444889,0.011622407139070983,9.296146358218659E-4,-141.432401,-25.51812952,-31.47002142,-8.50E-04,-0.002019602,-7.01E-04,9.931729825954992,0.34311450583842196,0.11317121859151617,9.931729825954992,0.34311450583842196,0.11317121859151617,-92.35204544,-67.39780136,-4.589273911,-26.66666667,8.747569913749845E-5,-2.89E-04,3.187673288460785E-4,45,1.5,8.493762016296387,61.54600143432617,4.908977031707764,258.5489807128906,155.6999969482422,-86.9107642,40.425051,Garage
188,-0.881995404,-0.017960754,0.003081918,0.4709054680125227,-0.01148631,-0.034592102,2.1605828572245476,-0.021421167,0.011527518226394376,9.296146318660054E-4,-141.5045035,-25.60243147,-31.52528746,-0.0105611,-0.001957265,-0.00217522,9.914450737,0.3397721890360117,0.11198525026870462,9.914450737,0.3397721890360117,0.11198525026870462,-92.42463623,-67.481493,-4.645515904,-27.25,1.1119792278566696E-4,-3.84E-04,3.1876732997632433E-4,45,1.5,8.493762016296387,61.54600143432617,4.908977031707764,258.5489807128906,155.6999969482422,-86.9107642,40.425051,Garage
189,-0.882279033,-0.017896024,0.00292797,0.4703772823208744,-0.01167638,-0.034339839,2.161780248567896,-0.021539778,0.011646129322030302,8.821701890906518E-4,-141.4783952,-25.55777935,-31.48539339,-0.014316929,-0.004420925,-0.001504092,9.877859402628777,0.33685948026990425,0.11449830646816532,9.877859402628777,0.33685948026990425,0.11449830646816532,-92.3981617,-67.43769485,-4.604889894,-27.11111111,-7.41E-06,-2.08E-04,1.5567707912815572E-4,45,1.5,8.493762016296387,61.54600143432617,4.908977031707764,258.5489807128906,155.6999969482422,-86.9107642,40.425051,Garage
190,-0.8822654,-0.017763356,0.00300961,0.4704073739861979,-0.011408417,-0.03418215,2.1617198106154656,-0.021563501,0.011681712684628455,9.177535200419212E-4,-141.5242673,-25.5125176,-31.54187948,0.009605685,-8.23E-04,-0.001490539,9.904932549856241,0.3381575304038316,0.11013082410542303,9.904932549856241,0.3381575304038316,0.11013082410542303,-92.44415604,-67.39255463,-4.661741896,-28.625,-3.11E-05,-7.71E-05,1.4826892739505444E-6,45,1.5,8.493762016296387,61.54600143432617,4.908977031707764,258.5489807128906,155.6999969482422,-86.9107642,40.425051,Garage
191,-0.882002091,-0.017755853,0.003189621,0.47089998641060393,-0.011102757,-0.034332148,2.160606887,-0.021682112,0.012073129392907169,7.635590663288259E-4,-141.5086513,-25.57107746,-31.5232135,0.012191818755807228,0.004030602,0.001113077,9.926839606275836,0.34338747384478746,0.11184703545120445,9.926839606275836,0.34338747384478746,0.11184703545120445,-92.42878372,-67.45111458,-4.64295393,-29.22222222,-1.50E-04,3.1431947690118285E-4,-1.53E-04,45,1.5,8.493762016296387,61.54600143432617,4.908977031707764,258.5489807128906,155.6999969482422,-86.9107642,40.425051,Garage
192,-0.881880329,-0.017861067,0.003213306,0.47112385728038275,-0.011168964,-0.034537255,2.1600948503384223,-0.021532365,0.011852786383734873,7.04823762554532E-4,-141.4801036,-25.60023542,-31.4714854,0.009394178,6.383115855547098E-4,0.002740872,9.944933891296387,0.34494977827789713,0.11362132444543746,9.944933891296387,0.34494977827789713,0.11362132444543746,-92.40011406,-67.48112686,-4.591347899,-26.5,-5.60E-13,9.397649018165584E-5,-2.11E-04,45,1.5,17.619882583618164,122.4000015258789,11.38574504852295,84.85384368896484,154.29998779296875,-86.9098479,40.4251208,Garage
193,-0.882110195,-0.017801306,0.003092536,0.4706963535072734,-0.011309052,-0.034323482,2.161064574,-0.021610945,0.011646129349156202,8.584479609215E-4,-141.4647318,-25.62817354,-31.46965528,-0.023000912,-0.002332648,-6.86E-04,9.899720016035062,0.338415977,0.1115247013987702,9.899720016035062,0.338415977,0.1115247013987702,-92.38474197,-67.5088205,-4.589273877,-27.44444444,-7.86E-05,-1.13E-04,-5.78E-05,45,1.5,17.619882583618164,122.4000015258789,11.38574504852295,84.85384368896484,154.29998779296875,-86.9098479,40.4251208,Garage
194,-0.88230406,-0.017764697,0.002983044,0.47033499861226497,-0.01145377,-0.034160444,2.161883298633168,-0.021373723,0.011812184878525514,7.516979556349874E-4,-141.4813245,-25.58937744,-31.45379543,-0.00445764,-0.001197123,8.392078277555485E-4,9.888949412744022,0.3369204630550829,0.11415854832428751,9.888949412744022,0.3369204630550829,0.11415854832428751,-92.40096817,-67.4705127,-4.573657885,-28.66666667,1.5864237008200399E-4,5.3375000947887456E-5,-1.65E-04,45,1.5,17.619882583618164,122.4000015258789,11.38574504852295,84.85384368896484,154.29998779296875,-86.9098479,40.4251208,Garage
195,-0.882383656,-0.017646393,0.002994346,0.47018978723044536,-0.01131692,-0.033964133,2.162217954987461,-0.021397445,0.012037545948931314,7.04253504947913E-4,-141.4832751,-25.58730345,-31.44061951,-0.002267652,5.655679309252397E-4,-9.12E-05,9.891696457723969,0.33677817230085727,0.1118760745140534,9.891696457723969,0.33677817230085727,0.1118760745140534,-92.4034079,-67.46782883,-4.560969906,-29.125,1.3492014304309794E-4,2.7873612560548827E-4,-2.12E-04,45,1.5,17.619882583618164,122.4000015258789,11.38574504852295,84.85384368896484,154.29998779296875,-86.9098479,40.4251208,Garage
196,-0.882211231,-0.017607948,0.003130735,0.4705139311771948,-0.011052325,-0.034020553,2.1614877367482603,-0.021504195,0.01176474,9.05892407652714E-4,-141.4844951,-25.58742554,-31.52345737,0.024302214094736044,0.00197196,-3.61E-04,9.933558767,0.34039340196893764,0.10921854904154316,9.933558767,0.34039340196893764,0.10921854904154316,-92.40474998,-67.46734123,-4.644417911,-29.11111111,2.817013888683134E-5,5.930562693517185E-6,-1.04E-05,45,1.5,17.619882583618164,122.4000015258789,11.38574504852295,84.85384368896484,154.29998779296875,-86.9098479,40.4251208,Garage
197,-0.882010398,-0.01776587,0.003178589,0.4708841338898372,-0.011131057,-0.03433962,2.160642156323183,-0.021599084,0.011669851568283386,8.584479580958853E-4,-141.551351,-25.54923943,-31.51381933,0.005939956,0.001222659,0.001734887,9.946490380370502,0.3406432767226858,0.11229133298078063,9.946490380370502,0.3406432767226858,0.11229133298078063,-92.47136169,-67.42891037,-4.63343792,-30.125,-6.67E-05,-8.90E-05,-5.78E-05,45,1.5,2.5601539611816406,41.042999267578125,3.2261993885040283,252.12522888183594,155.6999969482422,-86.9105157,40.4250222,Garage
198,-0.882148132,-0.017802718,0.003066423,0.4706253698728617,-0.011353706,-0.034302291,2.1612249207728116,-0.021456751,0.011705434912797606,8.821701772230705E-4,-141.5157274,-25.60011337,-31.5287034,-0.021630528,-0.003126183,2.320264872995395E-4,9.900756706311865,0.33890964221028447,0.1130347346471062,9.900756706311865,0.33890964221028447,0.1130347346471062,-92.43586014,-67.48039474,-4.649053874,-29.88888889,7.561458618316836E-5,-5.34E-05,-3.41E-05,45,1.5,2.5601539611816406,41.042999267578125,3.2261993885040283,252.12522888183594,155.6999969482422,-86.9105157,40.4250222,Garage
199,-0.882251653,-0.01773552,0.003034011,0.47043405082619305,-0.011340148,-0.034155643,2.1616611017764193,-0.021456751,0.011835907151904499,8.703090721804613E-4,-141.5461052,-25.59047552,-31.51101345,-0.004283877,8.900194492154908E-4,-2.18E-05,9.896273112991482,0.33776840393983043,0.11256720564662687,9.896273112991482,0.33776840393983043,0.11256720564662687,-92.46599411,-67.47161072,-4.630753894,-29.625,7.561458618316836E-5,7.709722911703934E-5,5.930584168188201E-6,45,1.5,2.5601539611816406,41.042999267578125,3.2261993885040283,252.12522888183594,155.6999969482422,-86.9105157,40.4250222,Garage
200,-0.882257469,-0.017719854,0.00303869,0.4704237156189405,-0.011316726,-0.034132531,2.161685349849554,-0.021532365,0.011653086354132168,9.515120613146932E-4,-141.5079184,-25.62121954,-31.52065144,-0.004596582,-0.001597012,-0.001562172,9.881132061041674,0.33685948099326163,0.1098839915131481,9.881132061041674,0.33685948099326163,0.1098839915131481,-92.42756409,-67.50052475,-4.640513906,-28.77777778,0,-1.06E-04,1.8795300275087357E-4,45,1.5,2.5601539611816406,41.042999267578125,3.2261993885040283,252.12522888183594,155.6999969482422,-86.9105157,40.4250222,Garage
201,-0.882079058,-0.017765562,0.003132883,0.47075579206920365,-0.011206454,-0.03429764,2.160932246921132,-0.021385584,0.011835907106694667,9.058923986107472E-4,-141.4393553,-25.47542942,-31.46916739,0.025770484,0.003975315,5.39996200105519E-4,9.936068313,0.3440437578749888,0.11160891409511271,9.936068313,0.3440437578749888,0.11160891409511271,-92.35887802,-67.35449112,-4.589151888,-29.625,1.4678125825791973E-4,7.709723137753102E-5,1.4233334188901105E-4,45,1.5,2.5601539611816406,41.042999267578125,3.2261993885040283,252.12522888183594,155.6999969482422,-86.9105157,40.4250222,Garage
202,-0.881803492,-0.017897254,0.003244751,0.471266048,-0.011153219,-0.034628941,2.159771308158208,-0.021433028,0.011859629357468735,9.533368419512238E-4,-141.4583868,-25.44846756,-31.51686943,5.23363502280226E-4,-4.64E-04,1.8144847409239093E-4,9.936085728765692,0.3437533663603866,0.11100199719997195,9.936085728765692,0.3437533663603866,0.11100199719997195,-92.37839798,-67.328871,-4.636975894,-30.33333333,9.933681039645979E-5,1.008194595466829E-4,1.8977778918534806E-4,45,1.5,25.60601043701172,53.56100082397461,6.869175910949707,152.56253051757812,155.1999969482422,-86.910277,40.4247164,Garage
203,-0.88199106,-0.017858672,0.003140689,0.470917059,-0.011286777,-0.034467231,2.1605624481312278,-0.021350001,0.011610546,8.703090676594778E-4,-141.4334993,-25.44505156,-31.53333942,-0.012106507,-0.003358968,5.980375249987667E-4,9.913133232338915,0.33889802581476935,0.11263399528231001,9.913133232338915,0.33889802581476935,0.11263399528231001,-92.35338776,-67.32569847,-4.653811913,-28.55555556,1.823645937301725E-4,-1.48E-04,1.0675000641675828E-4,45,1.5,25.60601043701172,53.56100082397461,6.869175910949707,152.56253051757812,155.1999969482422,-86.910277,40.4247164,Garage
204,-0.88211775,-0.017884633,0.003041904,0.47067938904160433,-0.011476309,-0.034423037,2.1610981862521865,-0.021480473,0.011646129344635218,9.8892018194446E-4,-141.5135307,-25.43590157,-31.42597942,-0.014705306,-0.001675202,-8.30E-04,9.886475984866802,0.3401259338626495,0.11346350854476511,9.886475984866802,0.3401259338626495,0.11346350854476511,-92.43403015,-67.31654915,-4.547061887,-29.375,5.189236140475401E-5,-1.13E-04,2.2536112465760082E-4,45,1.5,25.60601043701172,53.56100082397461,6.869175910949707,152.56253051757812,155.1999969482422,-86.910277,40.4247164,Garage
205,-0.882205005,-0.017777489,0.003042215,0.47051985894592063,-0.01136857,-0.03423632,2.1614647999550534,-0.021373723,0.011646129322030302,8.94031300914736E-4,-141.4413074,-25.47262352,-31.47233948,0.002345807,-2.98E-04,-3.17E-04,9.894002192228744,0.3382707825563486,0.11084808958965597,9.894002192228744,0.3382707825563486,0.11084808958965597,-92.3614402,-67.35363739,-4.592689905,-27.66666667,1.586423683866352E-4,-1.13E-04,1.304722300649268E-4,45,1.5,25.60601043701172,53.56100082397461,6.869175910949707,152.56253051757812,155.1999969482422,-86.910277,40.4247164,Garage
206,-0.882118636,-0.017713099,0.003135133,0.4706835500823641,-0.011150223,-0.034208114,2.1610984802246094,-0.021551639,0.012037546012225082,6.449479605206876E-4,-141.4120274,-25.43760944,-31.48783342,0.0157993,0.002486766,1.1173765925527776E-4,9.923877642,0.33975758338437495,0.11121398253022756,9.923877642,0.33975758338437495,0.11121398253022756,-92.33167221,-67.31715919,-4.607085905,-27.75,-1.93E-05,2.7873612560548827E-4,-1.19E-04,45,1.5,25.60601043701172,53.56100082397461,6.869175910949707,152.56253051757812,155.1999969482422,-86.910277,40.4247164,Garage
207,-0.881931748,-0.017833452,0.003194098,0.4710287596415548,-0.011173091,-0.034471627,2.1603114003116644,-0.021243251,0.011646129335593251,9.770590667296383E-4,-141.479005,-25.43455952,-31.48758944,0.010621348631034777,3.0334713389572587E-4,3.438993058737042E-4,9.943351283,0.34443288,0.11080162742545882,9.943351283,0.34443288,0.11080162742545882,-92.39913849,-67.31484085,-4.608793893,-28.88888889,2.8911459958180785E-4,-1.13E-04,2.1350001283351657E-4,45,1.5,4.427760601043701,64.33799743652344,4.878806114196777,307.7241516113281,155.6999969482422,-86.9106333,40.4249784,Garage
208,-0.881917353,-0.017880936,0.003177702,0.47105401353194165,-0.011247816,-0.03453963,2.1602516059692087,-0.021520618,0.011747062824165018,7.635590619219539E-4,-141.4653412,-25.44822355,-31.44098532,-0.014059177,-9.32E-04,-4.86E-04,9.914660638975866,0.341857112,0.1117105513123922,9.914660638975866,0.341857112,0.1117105513123922,-92.38510803,-67.32862663,-4.561579909,-30.5,1.1747060433173408E-5,-1.17E-05,0,45,1.5,4.427760601043701,64.33799743652344,4.878806114196777,307.7241516113281,155.6999969482422,-86.9106333,40.4249784,Garage
