seconds_elapsed,location_bearingAccuracy,location_speedAccuracy,location_verticalAccuracy,location_horizontalAccuracy,location_speed,location_bearing,location_altitude,location_longitude,location_latitude,accelerometer_z,accelerometer_y,accelerometer_x,orientation_qz,orientation_qy,orientation_qx,orientation_qw,orientation_roll,orientation_pitch,orientation_yaw,totalAcceleration_z,totalAcceleration_y,totalAcceleration_x,magnetometerUncalibrated_z,magnetometerUncalibrated_y,magnetometerUncalibrated_x,gyroscopeUncalibrated_z,gyroscopeUncalibrated_y,gyroscopeUncalibrated_x,microphone_dBFS,accelerometerUncalibrated_z,accelerometerUncalibrated_y,accelerometerUncalibrated_x,magnetometer_z,magnetometer_y,magnetometer_x,gyroscope_z,gyroscope_y,gyroscope_x,class
0,45,1.5,1,11.47700023651123,0,0,160.6999969482422,-86.915597,40.3848549,1.4587928508890085E-4,0.008464537,-0.00149115,-0.996882587,0.012766191,0.009453315,0.077283041,0.020828444382240033,0.023993898825398808,2.9866027749817947,9.928452491760254,-0.23301772,-0.209936953,-99.38304739,-11.61181187,-34.85650854,-0.021021571,0.011864128362002044,0.001142706,-138,9.928558858235677,-0.229451751,-0.208913357,-51.22339333,-61.40327644,-8.631499847,-1.00E-04,-0.003407053,9.899938334550324E-4,Home
1,45,1.5,1,11.47700023651123,0,0,160.6999969482422,-86.915597,40.3848549,-0.01853167,-0.004920945,-0.013784975,-0.996898197,0.012372820339735273,0.00921509,0.077174721,0.020289612,0.023248618631397638,2.9868352899273622,9.894289711146678,-0.234996091,-0.214450921,-99.27017822,-11.58621778,-34.96336922,-0.020958584,0.012855962737693984,0.00173617,-132.875,9.894289711146678,-0.234996091,-0.214450921,-51.09042683,-61.38576283,-8.743861837,-3.71E-05,-0.002415219,0.001583458,Home
2,45,1.5,1,11.47700023651123,0,0,160.6999969482422,-86.915597,40.3848549,-0.011001348,-0.005248782,-0.015528963,-0.996898337,0.012175639679368872,0.009203157,0.07720587,0.020235952240629837,0.022856656,2.9867777801476993,9.87260325,-0.231647882,-0.215891262,-99.30665672,-11.43932978,-34.84917721,-0.020992,0.012075980570024023,0.001068983,-134.6666667,9.87260325,-0.231647882,-0.215891262,-51.12727104,-61.23924091,-8.62942585,-7.05E-05,-0.003195201,9.162708906492648E-4,Home
3,45,0.28319603204727173,1.0266627073287964,9.142000198364258,1.0617969036102295,146.59869384765625,160.6999969482422,-86.9155514,40.3848022,0.002107278,-0.004781958,-0.01765631,-0.996912255,0.012263126246341802,0.009205088,0.077011892,0.020248899200153582,0.023034754272514175,2.9871648260690633,9.878201984664768,-0.232231569,-0.217633608,-99.24236244,-11.43652382,-34.81489525,-0.021136501,0.012179879372198027,8.465868457066782E-4,-118,9.878201984664768,-0.232231569,-0.217633608,-51.06212296,-61.23643494,-8.594533834,-2.15E-04,-0.003091302,6.938750417089289E-4,Home
4,45,0.191049725,1.0367224216461182,7.552999973297119,1.7268203496932983,77.64102935791016,160.6999969482422,-86.9155258,40.3848104,0.017209803016440383,-5.35E-04,-0.016087405,-0.996923011,0.012154152870033552,0.009126902,0.076899074,0.020073502659074312,0.022831784308101368,2.9873955203491507,9.910708381134329,-0.226406323,-0.214683235,-99.20539612,-11.44481975,-34.91456936,-0.021243251,0.012500129368843383,6.093646001830263E-4,-118.2222222,9.910708381134329,-0.226406323,-0.214683235,-51.02515686,-61.2449749,-8.693475828,-3.22E-04,-0.002771052,4.5665280522724376E-4,Home
5,45,0.14866068959236145,1.0467549562454224,6.835000038146973,1.9277441501617432,83.94565582,160.6999969482422,-86.9155016,40.3848113,0.013400485,-0.003229302,-0.016732302,-0.996919763,0.011951382913925116,0.009194975,0.076964818,0.020179423,0.022415633,2.9872668854241233,9.939410691122406,-0.225715192,-0.217029595,-99.28603821,-11.45982574,-34.88309341,-0.021029751,0.012488268261540283,7.635590522007529E-4,-153,9.939410691122406,-0.225715192,-0.217029595,-51.10555508,-61.25949299,-8.663829823,-1.08E-04,-0.002782913,6.108472589403391E-4,Home
6,45,0.15556348860263824,1.0566915273666382,5.006000042,1.0316952466964722,75.58737182617188,160.6999969482422,-86.9154968,40.3848139,-0.014619855,-0.005857045,-0.017115837,-0.996922153,0.011992630512607329,0.009163107,0.07693109,0.020121455843587523,0.022503472,2.9873343069576523,9.913777699837318,-0.229276699,-0.217102639,-99.24382622,-11.49923172,-34.87565117,-0.021480473,0.012381518268686475,3.24697924881848E-4,-148.7777778,9.913777699837318,-0.229276699,-0.217102639,-51.06431904,-61.29938667,-8.654801788,-5.59E-04,-0.002889663,1.7198611240725495E-4,Home
7,45,0.14866068959236145,1.0667427778244019,4.784999847412109,0.24742981791496277,35.19320297241211,160.6999969482422,-86.9155018,40.3848155,-0.012853002,-0.002770602,-0.013813875,-0.996923482,0.012340470407049633,0.009128433,0.07686315,0.020104521,0.023203807367572507,2.987463138635876,9.885868322502063,-0.232397091,-0.212406569,-99.26114967,-11.52643777,-34.90529728,-0.021219528,0.012595018263436059,5.975034940101713E-4,-151.75,9.885868322502063,-0.232397091,-0.212406569,-51.08176476,-61.32659275,-8.685789804,-2.98E-04,-0.002676163,4.4479169340315953E-4,Home
8,45,0.12041594833135605,1.0766841173171997,4.204999923706055,0.7915510535240173,179.701416,160.6999969482422,-86.9155028,40.3848025,-0.003456755,-0.002786649,-0.014499025,-0.996928331,0.012393908285834258,0.009081905,0.076797211,0.020018431258577746,0.023318858,2.9875952410466464,9.881663331707705,-0.233326342,-0.212383337,-99.25138969,-11.54571374,-34.86820938,-0.02133814,0.012571296021703956,7.042535100340192E-4,-91.55555556,9.881663331707705,-0.233326342,-0.212383337,-51.071273,-61.34538082,-8.649311848,-4.17E-04,-0.002699886,5.515416998199178E-4,Home
9,45,0.12041594833135605,1.0866918563842773,4.171999931335449,0.9559049010276794,359.87481689453125,160.6999969482422,-86.9155029,40.3848215,0.001362273,-0.003229018,-0.015623767,-0.996930358,0.012405670998455251,0.009058219,0.07677175,0.019972408,0.023346469186029388,2.987646595945636,9.886634928508869,-0.234017474,-0.213196432,-99.24565613,-11.54534772,-34.94836349,-0.021219528,0.012618740459958326,6.449479520438438E-4,-104.4444444,9.886634928508869,-0.234017474,-0.213196432,-51.0661488,-61.34501484,-8.728123856,-2.98E-04,-0.002652441,4.922361406994965E-4,Home
10,45,0.12041594833135605,1.096661091,4.0929999351501465,0.14568275213241577,114.18243408203125,160.6999969482422,-86.9155003,40.3848149,0.001870091,-0.003876425,-0.015106862,-0.996930826,0.012386713365021233,0.009025838,0.076772603,0.019904915386667617,0.023313629960354704,2.9876460822728963,9.891165141,-0.234365943,-0.211965174,-99.29409004,-11.54315174,-34.92847706,-0.021215195,0.012534115947066592,7.400649427346742E-4,-146.625,9.891165141,-0.234365943,-0.211965174,-51.11446079,-61.34306286,-8.709091825,-2.94E-04,-0.002737066,5.873531335964799E-4,Home
11,45,0.12727922201156616,1.0560110807418823,3.9230000972747803,0.9547466039657593,331.2922058105469,160.6999969482422,-86.9155103,40.3848278,0.018085082,-4.86E-04,-0.016119628,-0.996930802,0.012239133,0.009020247,0.076797207,0.019871555,0.023019711025854917,2.987600303390651,9.922814841409332,-0.228441966,-0.212940888,-99.20637253,-11.58694979,-34.90968918,-0.021266973,0.012595018263436059,7.516979556349874E-4,-152.5555556,9.922814841409332,-0.228441966,-0.212940888,-51.02613281,-61.38698292,-8.689693871,-3.45E-04,-0.002676163,5.989861471162549E-4,Home
12,45,0.12727922201156616,1.0661427974700928,3.9230000972747803,0.521234393,351.5402832,160.6999969482422,-86.9155083,40.3848306,0.011510043468290163,-0.002626014,-0.01461807,-0.996933133,0.012044657437691411,0.009017937,0.076797939,0.019836951842875157,0.02263225,2.987603437553332,9.947233977827054,-0.227454635,-0.21170963,-99.20930008,-11.53168374,-34.91042137,-0.021195806,0.012784796052621407,5.856423878373162E-4,-128.125,9.947233977827054,-0.227454635,-0.21170963,-51.02845089,-61.33196087,-8.689205847,-2.74E-04,-0.002486386,4.3293058157907525E-4,Home
13,45,0.12041594833135605,1.0760735273361206,3.921999931335449,0.5198370814323425,31.193872451782227,160.6999969482422,-86.9155025,40.3848342,-4.19E-04,-0.003285362,-0.015926497,-0.996931754,0.011982656753106603,0.009021051,0.076825216,0.019834208275073942,0.022507594,2.987550108178148,9.944507182223125,-0.22707132,-0.213173202,-99.25614853,-11.52106974,-34.98240124,-0.021041612,0.012500129332675518,8.703090716153383E-4,-145.5555556,9.944507182223125,-0.22707132,-0.213173202,-51.07627499,-61.32122478,-8.762161846,-1.20E-04,-0.002771052,7.175972653570973E-4,Home
14,45,0.14212670922279358,1.0861343145370483,3.9000000953674316,0.48817500472068787,37.259368896484375,160.6999969482422,-86.9154987,40.3848374,-0.002091602,-0.003679918,-0.01502053,-0.996928361,0.011956401648524316,0.009022309,0.076873188,0.019833744747690785,0.022454090633438627,2.987454449088828,9.940633847163273,-0.226834985,-0.212293987,-99.24846245,-11.55315572,-34.97996136,-0.021136501,0.012642462692648461,7.516979545047416E-4,-143.875,9.940633847163273,-0.226834985,-0.212293987,-51.06749092,-61.35318878,-8.759721842,-2.15E-04,-0.002628719,5.989861471162549E-4,Home
15,45,0.14866068959236145,1.0961456298828125,3.9000000953674316,0.33875709772109985,46.25882339477539,160.6999969482422,-86.9154962,40.3848386,-0.002281661,-0.003253691,-0.014792401,-0.996924779,0.011988437173942339,0.00904572,0.076911887,0.019886262,0.022513594821963495,2.987375549,9.936280296844187,-0.227117782,-0.212360106,-99.23955605,-11.5454697,-34.92664742,-0.021195806,0.012761073792805371,7.042535083386504E-4,-144.4444444,9.936280296844187,-0.227117782,-0.212360106,-51.05895103,-61.34562477,-8.707139854,-2.74E-04,-0.002510108,5.515416998199178E-4,Home
16,45,0.14866068959236145,1.1059653759002686,3.9000000953674316,0.13582803308963776,53.572181701660156,160.6999969482422,-86.915496,40.3848384,-0.017778267,-0.005948617,-0.016140871,-0.996924782,0.012061709890738853,0.009043771,0.076900536,0.019893441,0.022660232,2.987396642999742,9.907008791432798,-0.23091029,-0.213614595,-99.24931633,-11.55034976,-34.89846535,-0.021089056,0.012428962661731012,6.686701745617664E-4,-139.4444444,9.907008791432798,-0.23091029,-0.213614595,-51.06932087,-61.35062698,-8.678347855,-1.68E-04,-0.002842219,5.159583643476651E-4,Home
17,0,0.12727922201156616,1.1160296201705933,3.9000000953674316,0.035913094878196716,0,160.6999969482422,-86.9154972,40.3848374,-0.013145206,-0.004969282,-0.014865934,-0.996921202,0.012336732,0.00906392,0.076900984,0.019976148291409593,0.023205533207764903,2.987388816852014,9.880315984337075,-0.234223651,-0.212476263,-99.25017044,-11.55034975,-34.96446728,-0.021172084,0.012689907148986766,7.279757302914502E-4,-154,9.880315984337075,-0.234223651,-0.212476263,-51.06980885,-61.35026085,-8.744837856,-2.51E-04,-0.002581274,5.752639234680863E-4,Home
18,0,0.14866068959236145,1.1259901523590088,3.9000000953674316,0.031108884140849113,0,160.6999969482422,-86.9154974,40.3848372,-0.003166465,-0.003584665,-0.016018722,-0.996922177,0.012365626824948076,0.009044008,0.076886081,0.019940551,0.023266516572151046,2.9874185002767124,9.878062516740226,-0.233599311,-0.213057044,-99.25273224,-11.50667374,-34.89687935,-0.021285677,0.012522368906782223,8.927767529922465E-4,-158.1111111,9.878062516740226,-0.233599311,-0.213057044,-51.07237118,-61.30646267,-8.677127848,-3.64E-04,-0.002748813,7.400649483315647E-4,Home
19,0,0.14866068959236145,1.135956048965454,3.9000000953674316,0.052717894315719604,0,160.6999969482422,-86.915498,40.3848379,0.001896293,-0.00337994,-0.014949366,-0.996921287,0.012332698890885103,0.009073022,0.076899467,0.019993645781018202,0.023196117554619474,2.9873917473172678,9.883754137650277,-0.232553903,-0.212522724,-99.27993797,-11.51728779,-34.84051533,-0.021302556,0.012654323808993529,7.161146224232264E-4,-155.75,9.883754137650277,-0.232553903,-0.212522724,-51.10018703,-61.31756474,-8.621129808,-3.81E-04,-0.002616858,5.634028116440021E-4,Home
20,0,0.14866068959236145,1.145987868309021,3.9000000953674316,0.025998394936323166,0,160.6999969482422,-86.9154981,40.3848379,0.002161711,-0.004009962,-0.015822027,-0.996923022,0.012368207010756997,0.009064724,0.076872263,0.019981946108989346,0.023268748,2.987445673896271,9.888005571457946,-0.233994242,-0.213359051,-99.27554634,-11.53046371,-34.90639538,-0.021361862,0.012500129332675518,7.754201809785248E-4,-159.1111111,9.888005571457946,-0.233994242,-0.213359051,-51.09640511,-61.33049706,-8.687985907,-4.40E-04,-0.002771052,6.227083707644233E-4,Home
21,0,0.14866068959236145,1.1561903953552246,3.990000009536743,0.037470419,0,160.6999969482422,-86.9154983,40.3848383,0.007005895,-0.002209743,-0.015744225,-0.996923528,0.012316434219190217,0.009067155,0.07687369,0.019978828221848866,0.023165104585220513,2.9874439818187826,9.899435487765711,-0.231337164,-0.213382282,-99.21332611,-11.5396138,-34.90322323,-0.021444889,0.012630601576303394,7.042535083386504E-4,-147.5,9.899435487765711,-0.231337164,-0.213382282,-51.03308708,-61.33964664,-8.683227863,-5.23E-04,-0.00264058,5.515416998199178E-4,Home
22,45,0.14866068959236145,1.1660078763961792,3.9769999980926514,0.5093088746070862,347.0940856933594,160.6999969482422,-86.9155005,40.3848458,0.019262656424809427,-0.002417529,-0.015192788,-0.99692625,0.012134755,0.00904725,0.076869632,0.019910965,0.022805968606934963,2.987456842533593,9.939399966826805,-0.228675619,-0.212662113,-99.28677025,-11.55400972,-34.90895737,-0.021077195,0.012476407163279149,8.94031294133261E-4,-152.1111111,9.939399966826805,-0.228675619,-0.212662113,-51.107019,-61.35428688,-8.689571857,-1.56E-04,-0.002794774,7.413194890052659E-4,Home
23,45,0.14866068959236145,1.1759334802627563,3.9769999980926514,0.6171845197677612,347.09674072265625,160.6999969482422,-86.9155023,40.3848518,-0.007194538,-0.004496546,-0.016652087,-0.996932632,0.012007647998703337,0.008992343,0.076813265,0.019780537,0.022562083616418746,2.9875741560482285,9.927838621787654,-0.228674278,-0.213266126,-99.28433029,-11.56828378,-34.83026714,-0.021183945,0.012405240438082844,7.754201770226643E-4,-102,9.927838621787654,-0.228674278,-0.213266126,-51.10421284,-61.36819473,-8.611247797,-2.62E-04,-0.002865941,6.227083707644233E-4,Home
24,45,0.14866068959236145,1.1861212253570557,3.990000009536743,0.2658306360244751,347.7917175292969,160.6999969482422,-86.9155023,40.3848521,-0.00137843,-0.00394765,-0.016348522,-0.996926863,0.012180709307199543,0.009067396,0.07685204,0.019957842341470487,0.022894855787597812,2.987490605382086,9.917927501271071,-0.230744767,-0.214311535,-99.21991432,-11.50423376,-34.89138901,-0.021290695,0.012595018227268192,6.449479526089667E-4,-116.4444444,9.917927501271071,-0.230744767,-0.214311535,-51.0397971,-61.30414486,-8.671515856,-3.69E-04,-0.002676163,4.922361406994965E-4,Home
25,45,0.14866068959236145,1.1959460973739624,3.9769999980926514,0.29090991616249084,354.23187255859375,160.6999969482422,-86.9155024,40.3848549,0.005994426,-0.002415621,-0.016362348,-0.996928313,0.01214885,0.009072726,0.076837711,0.019963224,0.022830792,2.9875199748474417,9.934500148,-0.229194078,-0.214497384,-99.28323204,-11.63513981,-34.81513924,-0.021255112,0.012298490481396902,8.228646226236325E-4,-139.7777778,9.934500148,-0.229194078,-0.214497384,-51.10238316,-61.43541679,-8.594533815,-3.34E-04,-0.002972691,6.701528180607603E-4,Home
26,45,0.22022715210914612,1.105987787246704,3.9000000953674316,0.34960389137268066,330.25225830078125,160.6999969482422,-86.9155056,40.3848577,-0.002678761,-0.004896593,-0.017750419,-0.996932268,0.012023159875892676,0.009072767,0.07680606,0.019943176,0.022580773695013844,2.987586443240826,9.930013564,-0.229156327,-0.215891261,-99.28542809,-11.60293171,-34.76426533,-0.020898024,0.012686827833441874,0.0013979,-146.25,9.930013564,-0.229156327,-0.215891261,-51.1060429,-61.40235481,-8.544391794,2.34941040756754E-5,-0.002584354,0.001245189,Home
27,45,0.2617250382900238,1.1159781217575073,3.9000000953674316,0.1680365651845932,325.9559631347656,160.6999969482422,-86.9155061,40.384858,-0.014181137,-0.005059665,-0.015210616,-0.996920126,0.011865091275025918,0.009305032,0.076960286,0.020385482194788248,0.022226685,2.9872756050628366,9.905458200325086,-0.225517726,-0.217424526,-99.33849869,-11.55217973,-34.70607136,-0.021160223,0.012725490534189835,8.110035074088107E-4,-147.6666667,9.905458200325086,-0.225517726,-0.217424526,-51.15911301,-61.35233471,-8.485587807,-2.39E-04,-0.002545691,6.582917062366761E-4,Home
28,0,0.15620499849319458,1.1261214017868042,3.9000000953674316,0.092639953,0,160.6999969482422,-86.9155063,40.3848584,3.286287622544372E-4,-0.00321639,-0.015855716,-0.996920135,0.012021755013000039,0.009335703,0.076932226,0.020470248,0.022534932814610813,2.9873274668906498,9.904081798294216,-0.226351149,-0.218586091,-99.25919838,-11.48349378,-34.82965744,-0.021183945,0.012523851619617454,6.09364616571591E-4,-156.875,9.904081798294216,-0.226351149,-0.218586091,-51.0793251,-61.28377079,-8.609295778,-2.62E-04,-0.00274733,4.5665280522724376E-4,Home
29,0,0.191049725,1.136108636856079,3.9000000953674316,0.053551514,0,160.6999969482422,-86.9155069,40.3848576,0.002001198,-0.004041662,-0.016503763,-0.996918921,0.011962588,0.009358946,0.076954314,0.020507953572765136,0.022412913,2.987284058506049,9.911469247,-0.226095605,-0.219724424,-99.26944618,-11.48361573,-34.87894524,-0.021266973,0.012583157119965091,8.465868479671698E-4,-147,9.911469247,-0.226095605,-0.219724424,-51.08969486,-61.28364891,-8.658217821,-3.45E-04,-0.002688024,6.938750417089289E-4,Home
30,0,0.1702938675880432,1.1461256742477417,3.9000000953674316,0.05070851,0,160.6999969482422,-86.9155073,40.3848582,-0.007844888,-0.004569028,-0.014555228,-0.996919979,0.011971285512435783,0.009364815,0.076938579,0.02052065,0.022429674,2.9873153075431156,9.898532133836012,-0.226650923,-0.217815884,-99.26786018,-11.49679178,-34.75840923,-0.021350001,0.012464545983640314,8.584479620517458E-4,-155.625,9.898532133836012,-0.226650923,-0.217815884,-51.08847481,-61.2968248,-8.538291779,-4.28E-04,-0.002806636,7.057361535330131E-4,Home
31,0,0.15620499849319458,1.1559903621673584,3.9000000953674316,0.062706187,0,160.6999969482422,-86.9155076,40.3848588,-0.009167829,-0.00497924,-0.015828046,-0.996925731,0.012042062682578864,0.009297554,0.076861098,0.020395688,0.022582762956040576,2.9874705388708023,9.881826030397878,-0.228418734,-0.217563915,-99.28469635,-11.48959375,-34.83941715,-0.021219528,0.012535713,8.347257367082085E-4,-155.2222222,9.881826030397878,-0.228418734,-0.217563915,-51.10421299,-61.28926098,-8.618933859,-2.98E-04,-0.002735469,6.820139298848447E-4,Home
32,0,0.15620499849319458,1.1660161018371582,3.878000020980835,0.0607775,0,160.6999969482422,-86.9155078,40.3848593,-0.007875526,-0.004987208,-0.016233666,-0.996919659,0.012196895123902455,0.009381425,0.076905238,0.020587909,0.022877679812242684,2.9873763658468007,9.866098552074247,-0.23081446,-0.219538574,-99.29274826,-11.49544975,-34.80879524,-0.021219528,0.012642462719774362,7.398368438109032E-4,-153.75,9.866098552074247,-0.23081446,-0.219538574,-51.11226501,-61.29572697,-8.588311806,-2.98E-04,-0.002628719,5.871250352921705E-4,Home
33,0,0.1702938675880432,1.1760295629501343,3.881000042,0.039757639,0,160.6999969482422,-86.9155079,40.3848595,0.00141904,-0.002899802,-0.015234891,-0.9969308,0.012385868313677103,0.00921308,0.076750626,0.020277733362994148,0.023283576357711867,2.987685865568883,9.871447535394465,-0.233587695,-0.215798336,-99.29384621,-11.52082578,-34.93726124,-0.021480473,0.012061268,1.82364575646239E-4,-64.33333333,9.871447535394465,-0.233587695,-0.215798336,-51.11299725,-61.32110268,-8.717387867,-5.59E-04,-0.003209913,2.9652779560210635E-5,Home
34,45,0.1702938675880432,1.1860227584838867,3.881000042,0.15080824494361877,309.8736267089844,160.6999969482422,-86.9155101,40.3848607,0.003251149,-0.001338514,-0.014843259,-0.996939349,0.012393661183663286,0.00907895,0.07665435,0.020009158,0.023321683,2.987881926389841,9.879810786941677,-0.230875442,-0.211988405,-99.28274376,-11.53790573,-34.89309711,-0.021168206,0.012698574909546342,8.105473075724709E-4,-107.4444444,9.879810786941677,-0.230875442,-0.211988405,-51.10274902,-61.33781689,-8.673833828,-2.47E-04,-0.002572607,6.578355185830822E-4,Home
35,0,0.1702938675880432,1.1960117816925049,3.881000042,0.099511817,0,160.6999969482422,-86.9155107,40.384861,0.002593031,-0.004115515,-0.016205137,-0.996929299,0.012264285634443598,0.009248344,0.076785451,0.020330128,0.023035004,2.9876180875648575,9.884288538,-0.231752423,-0.217099288,-99.28847794,-11.56864974,-34.78659126,-0.02144489,0.012772934972444206,7.991423882381286E-4,-137.875,9.884288538,-0.231752423,-0.217099288,-51.108727,-61.36904865,-8.566961842,-5.23E-04,-0.002498247,6.464305944125919E-4,Home
36,0,0.1702938675880432,1.2060699462890625,3.9839999675750732,0.026355482637882233,0,160.6999969482422,-86.9155107,40.3848609,0.001385411,-0.004224167,-0.015628732,-0.996929343,0.012240849227364202,0.009265437,0.076786649,0.020360627,0.022985621,2.9876158584668797,9.887448052,-0.23141557,-0.216913437,-99.26237022,-11.51753174,-34.84685932,-0.021433028,0.012701768256289866,6.805312835602361E-4,-137.2222222,9.887448052,-0.23141557,-0.216913437,-51.08225296,-61.31768711,-8.6257658,-5.12E-04,-0.002569413,5.278194761717493E-4,Home
37,0,0.1702938675880432,1.2160463333129883,4.001999855041504,0.004106506,0,160.6999969482422,-86.9155105,40.3848608,0.020023521867770594,-2.48E-04,-0.015844059,-0.996929367,0.012180317346983164,0.009288298,0.07679318,0.020397026019478307,0.022861265948096527,2.987603696804602,9.923453729129532,-0.226606693,-0.21784269,-99.23126022,-11.51533575,-34.8089172,-0.021397445,0.012630601630555195,6.92392397644812E-4,-153.125,9.923453729129532,-0.226606693,-0.21784269,-51.05114304,-61.3153688,-8.589043827,-4.76E-04,-0.00264058,5.396805879958335E-4,Home
38,0,0.1702938675880432,1.2260385751724243,4.001999855041504,0.014568816870450974,0,160.6999969482422,-86.9155105,40.3848606,0.011618864189073878,-0.001743735,-0.013859943,-0.996930549,0.0118856,0.009311999,0.076821174,0.020399437819435758,0.022269357176660336,2.987554043242075,9.947510288311886,-0.223061688,-0.216573457,-99.23858032,-11.47507577,-34.82538723,-0.021314417,0.012725490470896068,8.228646237538784E-4,-155,9.947510288311886,-0.223061688,-0.216573457,-51.05858486,-61.27523079,-8.606367865,-3.93E-04,-0.002545691,6.701528180607603E-4,Home
39,0,0.1702938675880432,1.2361100912094116,4.001999855041504,0.026312505826354027,0,160.6999969482422,-86.9155104,40.3848603,0.001397374,-0.00299872,-0.014682068,-0.996936659,0.011758904967420889,0.009251831,0.076768669,0.020258711307372862,0.022027045,2.987663727362179,9.948485587407085,-0.221983668,-0.216123574,-99.19600227,-11.50569773,-34.8347813,-0.021456751,0.012737351596283102,7.279757331170648E-4,-151.75,9.948485587407085,-0.221983668,-0.216123574,-51.01600685,-61.30573082,-8.61527379,-5.35E-04,-0.00253383,5.752639234680863E-4,Home
40,0,0.1702938675880432,1.246034860610962,3.9839999675750732,0.024728363379836082,0,160.6999969482422,-86.9155104,40.3848601,-0.002484081,-0.003313695,-0.014552492,-0.996943926,0.011861394032908297,0.00915122,0.076670269,0.020071634,0.022248841207293632,2.9878609458219656,9.942715404103103,-0.224286468,-0.213986296,-99.23882401,-11.54327374,-34.8535693,-0.021255112,0.012132434906817756,3.2469792205623343E-4,-77.33333333,9.942715404103103,-0.224286468,-0.213986296,-51.05834068,-61.34367283,-8.633817816,-3.34E-04,-0.003138747,1.719861214492217E-4,Home
41,45,0.1702938675880432,1.1056641340255737,3.881000042,0.11599159240722656,230.7814941,160.6999969482422,-86.9155122,40.3848591,-0.001288627,-0.003606104,-0.016554458,-0.99695484,0.011977123024249539,0.008966075,0.076532245,0.019717089,0.022510810203633262,2.9881392173396732,9.941193710253076,-0.227631773,-0.212685344,-99.25346405,-11.57804373,-34.96068531,-0.021290695,0.012678046086893498,7.042534930803316E-4,-51.25,9.941193710253076,-0.227631773,-0.212685344,-51.07444489,-61.37832073,-8.739591827,-3.69E-04,-0.002593136,5.515416998199178E-4,Home
42,0,0.1702938675880432,1.1156429052352905,3.881000042,0.056477777659893036,0,160.6999969482422,-86.9155121,40.3848589,-0.002301977,-0.002895203,-0.015019058,-0.996947605,0.011927347173556112,0.009062784,0.07662285,0.019904360766164385,0.022394909,2.987956466583105,9.938275272,-0.225567093,-0.21296412,-99.25163422,-11.63940973,-34.92908722,-0.021168206,0.012839539648176959,0.001045489,-120.2222222,9.938275272,-0.225567093,-0.21296412,-51.07078484,-61.43968658,-8.7097019,-2.47E-04,-0.002431642,8.927767653054056E-4,Home
43,0,0.1702938675880432,1.1257950067520142,3.878000020980835,0.03785282,0,160.6999969482422,-86.9155119,40.3848586,-7.89E-04,-0.00457289,-0.014792058,-0.996933531,0.011844917806317506,0.009266544,0.076794241,0.020301897,0.022195776743651592,2.987610062,9.936773994593944,-0.225099563,-0.216541738,-99.1996624,-11.48703176,-34.86650108,-0.021456751,0.013022018307187026,7.398368392899198E-4,-154.6666667,9.936773994593944,-0.225099563,-0.216541738,-51.01978909,-61.28706486,-8.646017847,-5.35E-04,-0.002249163,5.871250352921705E-4,Home
44,0,0.1702938675880432,1.1357777118682861,3.878000020980835,0.022414518520236015,0,160.6999969482422,-86.9155118,40.3848585,-0.005320808,-0.004889661,-0.015195722,-0.996929915,0.011961239,0.009308948,0.076818064,0.020404960019785225,0.02242072,2.987558550047643,9.927153097,-0.227538849,-0.21786592,-99.15671822,-11.52192374,-34.85003128,-0.021112778,0.012595018245352125,8.1100351306004E-4,-153.625,9.927153097,-0.227538849,-0.21786592,-50.97635685,-61.32195663,-8.63040185,-1.91E-04,-0.002676163,6.582917062366761E-4,Home
45,0,0.1702938675880432,1.145814061164856,3.9000000953674316,0.0223123,0,160.6999969482422,-86.9155117,40.3848583,0.001555239,-0.003412341,-0.015061438,-0.996930276,0.011929910313518881,0.009315999,0.076817387,0.020414171,0.022357178,2.987560506005889,9.932705555147338,-0.225398667,-0.217796227,-99.19417236,-11.48739774,-34.88797325,-0.021290695,0.012630602,7.516979562001104E-4,-155.7777778,9.932705555147338,-0.225398667,-0.217796227,-51.0139328,-61.28718697,-8.667611837,-3.69E-04,-0.00264058,5.989861471162549E-4,Home
46,0,0.1702938675880432,1.155678153038025,3.9000000953674316,0.017543415,0,160.6999969482422,-86.9155116,40.3848582,-0.01272196,-0.005179836,-0.014236396,-0.996932842,0.012098153,0.009245432,0.076766057,0.020298205080975608,0.022704552352717778,2.9876610561481955,9.913674152814425,-0.230185512,-0.215630132,-99.24394844,-11.51069971,-34.91859531,-0.021326278,0.012132434915859722,3.6028126148434666E-4,-139.75,9.913674152814425,-0.230185512,-0.215630132,-51.06517281,-61.3101228,-8.698599854,-4.05E-04,-0.003138747,2.0756945692147446E-4,Home
47,0,0.16278821229934692,1.1656341552734375,3.9000000953674316,0.020781748,0,160.6999969482422,-86.9155115,40.384858,-0.014714148,-0.003660879,-0.015697643,-0.996931455,0.012219466142428732,0.00925188,0.076764058,0.020329761,0.022945505919531713,2.9876620167667425,9.880687713623047,-0.231035158,-0.21693667,-99.26322426,-11.53204978,-34.87125946,-0.021136501,0.013140629411864918,0.001119392,-157,9.880687713623047,-0.231035158,-0.21693667,-51.08335098,-61.33183872,-8.65101985,-2.15E-04,-0.002130552,9.666806204443418E-4,Home
48,0,0.1702938675880432,1.1756272315979004,3.9000000953674316,0.011987012811005116,0,160.6999969482422,-86.9155114,40.384858,-0.002694871,-0.003767058,-0.015106017,-0.996928221,0.012197937038772314,0.009299926,0.076803894,0.020423187322697593,0.022894391,2.987581514617772,9.879764186525808,-0.230044924,-0.216983132,-99.26676239,-11.49923182,-34.81806736,-0.021409306,0.012678046050725632,6.686701723012748E-4,-131.125,9.879764186525808,-0.230044924,-0.216983132,-51.08676697,-61.29950867,-8.598437843,-4.88E-04,-0.002593136,5.159583643476651E-4,Home
49,0,0.1702938675880432,1.185644268989563,3.9010000228881836,0.017730509862303734,0,160.6999969482422,-86.9155113,40.3848578,0.00120725,-0.003896444,-0.015331269,-0.996928403,0.012196471489676572,0.009297541,0.076802097,0.020418162340099372,0.022891873909721097,2.987585218,9.884157903,-0.229879401,-0.217261907,-99.2368721,-11.47592978,-34.79305759,-0.021219528,0.012689907185154633,7.161146082951534E-4,-64.55555556,9.884157903,-0.229879401,-0.217261907,-51.05797485,-61.27571861,-8.574281797,-2.98E-04,-0.002581274,5.634028116440021E-4,Home
50,0,0.1702938675880432,1.1956439018249512,3.9040000438690186,0.018912908,0,160.6999969482422,-86.9155111,40.3848577,0.003291019,-5.17E-05,-0.013954869,-0.996940157,0.012286612239566822,0.009122133,0.07665586,0.020078827,0.023101546087311308,2.9878804313326346,9.891022802556602,-0.229528028,-0.2124298,-99.25797813,-11.53875974,-34.91603352,-0.021480473,0.012132435,1.586423446514725E-4,-55,9.891022802556602,-0.229528028,-0.2124298,-51.07810501,-61.33891487,-8.696525841,-5.59E-04,-0.003138747,5.930551391058755E-6,Home
51,0,0.16278821229934692,1.2057054042816162,4.0229997634887695,0.013492714613676071,0,160.6999969482422,-86.9155111,40.3848576,0.012263711,-0.002907817,-0.017175743,-0.996942721,0.012289729,0.009085514,0.076626442,0.020005588312275134,0.023113985,2.9879402197324314,9.910246673139554,-0.230921904,-0.215078167,-99.26481056,-11.56486774,-34.83478146,-0.021297424,0.012569357247020189,7.753061173179259E-4,-73.33333333,9.910246673139554,-0.230921904,-0.215078167,-51.08457092,-61.36502285,-8.614541817,-3.76E-04,-0.002701824,6.225943238510249E-4,Home
52,0,0.23345234990119934,1.2157121896743774,4.040999889373779,0.013737143948674202,0,160.6999969482422,-86.915511,40.3848575,0.016453511506608388,-0.002739673,-0.01339021,-0.996934645,0.012020490304069611,0.009225755,0.076757287,0.020246798,0.022552904356451867,2.9876809166473093,9.947097389443407,-0.226728657,-0.214450921,-99.23077293,-11.52704774,-34.86930737,-0.021207667,0.013223657194633507,9.058923918292722E-4,-112.75,9.947097389443407,-0.226728657,-0.214450921,-51.05163074,-61.32708088,-8.647481852,-2.86E-04,-0.002047524,7.531806008293501E-4,Home
53,0,0.16278821229934692,1.225719690322876,4.043000221252441,0.011892581358551979,0,160.6999969482422,-86.915511,40.3848574,0.003608972,-0.002912427,-0.014799786,-0.996933275,0.011820044703058247,0.00926362,0.07680167,0.020292391,0.022146469759709627,2.987595801,9.951340073520697,-0.223182982,-0.216657894,-99.22955223,-11.51045576,-34.90615124,-0.02133814,0.012678046068809564,8.110034994970899E-4,-151.2222222,9.951340073520697,-0.223182982,-0.216657894,-51.04882481,-61.31036694,-8.685667858,-4.17E-04,-0.002593136,6.582917062366761E-4,Home
54,0,0.16278821229934692,1.2357124090194702,4.041999816894531,0.007684067,0,160.6999969482422,-86.9155109,40.3848574,-0.002310429,-0.004159951,-0.013877166,-0.996938727,0.011859617946506704,0.009182952,0.076734495,0.020136108,0.022239153372865278,2.9877313988880045,9.946052033,-0.225404474,-0.214195378,-99.23638466,-11.52729176,-34.91591148,-0.021385584,0.012784796079747307,7.635590527658758E-4,-61.625,9.946052033,-0.225404474,-0.214195378,-51.05699894,-61.32732483,-8.69615984,-4.64E-04,-0.002486386,6.108472566798474E-4,Home
55,0,0.2475883662700653,1.2456037998199463,4.021999835968018,0.003264575,0,160.6999969482422,-86.9155109,40.3848574,-0.003294898,-0.004561373,-0.015310643,-0.996943318,0.011933684737864629,0.009110952,0.076671815,0.02000251,0.022399170848640425,2.9878570038138084,9.941855999139639,-0.227283639,-0.214433721,-99.27920616,-11.56767375,-34.8105032,-0.021504195,0.012405240492334643,3.7214236426646416E-4,-52.88888889,9.941855999139639,-0.227283639,-0.214433721,-51.09896694,-61.36770664,-8.590751829,-5.83E-04,-0.002865941,2.1943056422457532E-4,Home
56,0,0.21931712329387665,1.1544549465179443,3.9240000247955322,0.086344406,0,160.6999969482422,-86.9155119,40.3848564,-0.009437524,-0.003570933,-0.015110018,-0.996941914,0.012069511815037542,0.009118177,0.076667998,0.020037769529859997,0.022668985,2.9878612976629757,9.922762546724487,-0.228369367,-0.213591363,-99.28823372,-11.55108175,-34.86308529,-0.02112464,0.012701768,9.889201700768787E-4,-94.22222222,9.922762546724487,-0.228369367,-0.213591363,-51.10872696,-61.35123676,-8.643943815,-2.03E-04,-0.002569413,8.362083858584316E-4,Home
57,0,0.16970562934875488,1.1644859313964844,3.9200000762939453,0.042793371,0,160.6999969482422,-86.915512,40.3848563,0.004623154,-0.001119694,-0.015170017,-0.996938656,0.012031314098863925,0.009167997,0.076710437,0.020132213613940676,0.022584309403612775,2.9877759438116573,9.933599981289465,-0.226127547,-0.215473098,-99.25492828,-11.58743776,-34.87650528,-0.021207668,0.012867824,6.212257176583398E-4,-77.25,9.933599981289465,-0.226127547,-0.215473098,-51.07566502,-61.38759285,-8.656631889,-2.86E-04,-0.002403358,4.685139238328031E-4,Home
58,0,0.17691805958747864,1.1745171546936035,3.9000000953674316,0.01584073,0,160.6999969482422,-86.915512,40.3848563,0.001182473,-0.004668468,-0.015367824,-0.99693217,0.011918988078832626,0.009270191,0.076799906,0.020320736360058045,0.022342793842397846,2.9875968266459343,9.936553223619184,-0.226670579,-0.217331601,-99.2524881,-11.52424173,-34.86210938,-0.021183945,0.012832240545127577,8.821701613996286E-4,-147.5555556,9.936553223619184,-0.226670579,-0.217331601,-51.07212711,-61.32415257,-8.642235813,-2.62E-04,-0.002438941,7.294583771811817E-4,Home
59,0,0.16278821229934692,1.1845662593841553,3.9000000953674316,0.010872493,0,160.6999969482422,-86.915512,40.3848562,-0.001094121,-0.003416695,-0.014097651,-0.996930801,0.011996258,0.00928242,0.076804201,0.020357147163639847,0.022494907867020138,2.987586110830307,9.935127397,-0.226609595,-0.216239731,-99.24260612,-11.59756369,-34.83868511,-0.021050736,0.012851287,7.870531788704774E-4,-138.75,9.935127397,-0.226609595,-0.216239731,-51.06200085,-61.39747463,-8.618933811,-1.29E-04,-0.002419895,6.343413842841983E-4,Home
60,0,0.17691805958747864,1.1944806575775146,3.9059998989105225,0.005850442,0,160.6999969482422,-86.9155119,40.3848562,-0.002125944,-0.004896393,-0.014225054,-0.996928607,0.011976381,0.009315296,0.076831835,0.020420273621250123,0.022449649472549123,2.9875304143405654,9.931744316249217,-0.227869893,-0.217076056,-99.18392418,-11.53875971,-34.79488724,-0.021065334,0.012867824,8.940312856564171E-4,-106.2222222,9.931744316249217,-0.227869893,-0.217076056,-51.00405075,-61.33867081,-8.575257835,-1.44E-04,-0.002403358,7.413194890052659E-4,Home
61,0,0.2545584440231323,1.204405665397644,3.9159998893737793,0.002626436,0,160.6999969482422,-86.9155119,40.3848562,-0.013433725,-0.006559199,-0.017280894,-0.99693438,0.012016898898172725,0.009229729,0.076760712,0.020254245932096418,0.022545057647291897,2.9876740464886415,9.913019930274741,-0.230390489,-0.218330546,-99.25041405,-11.54510373,-34.79525349,-0.021290695,0.012310351593220987,5.026146033733576E-4,-81.125,9.913019930274741,-0.230390489,-0.218330546,-51.07041878,-61.34538067,-8.575257788,-3.69E-04,-0.00296083,3.499027965499938E-4,Home
62,0,0.24041630327701569,1.2144426107406616,3.930000066757202,9.505217312835157E-4,0,160.6999969482422,-86.9155119,40.3848562,-0.01482408,-0.003547812,-0.015767576,-0.996932225,0.012251495211882499,0.009238035,0.076750748,0.020306791,0.023011790805505316,2.987688249754674,9.880350918445773,-0.23130522,-0.216704357,-99.2790844,-11.57938577,-34.87284523,-0.021089056,0.012500129355280434,7.161146077300305E-4,-57.77777778,9.880350918445773,-0.23130522,-0.216704357,-51.09847912,-61.37856457,-8.651751823,-1.68E-04,-0.002771052,5.634028139044938E-4,Home
63,0,0.16970562934875488,1.2244337797164917,3.9630000591278076,3.0962974415160716E-4,0,160.6999969482422,-86.9155119,40.3848562,-0.002413787,-0.002433463,-0.015231763,-0.996932106,0.012348704700114078,0.009230136,0.076737576,0.020305732,0.023207114448825134,2.9877125105811553,9.878149949587309,-0.232169944,-0.215584117,-99.24589981,-11.55608375,-34.80257328,-0.021302556,0.012322212718608021,7.516979448976519E-4,-70.33333333,9.878149949587309,-0.232169944,-0.215584117,-51.065783,-61.35623886,-8.583065777,-3.81E-04,-0.002948969,5.989861584187133E-4,Home
64,0,0.16970562934875488,1.234473466873169,5.017000198364258,0.006702553,0,160.6999969482422,-86.9155118,40.3848561,0.001609867,-0.004823754,-0.01450058,-0.996933717,0.012469022,0.009195338,0.076701339,0.020254037840273773,0.023453119762458847,2.9877831357196696,9.883225792820014,-0.236137329,-0.214660003,-99.21796181,-11.59683172,-34.82746132,-0.02123139,0.012642462737858295,7.279757184238689E-4,-86.25,9.883225792820014,-0.236137329,-0.214660003,-51.03784492,-61.39698654,-8.606977835,-3.10E-04,-0.002628719,5.752639279890697E-4,Home
65,0,0.16970562934875488,1.2444130182266235,6.073999881744385,0.00949795,0,160.6999969482422,-86.9155118,40.384856,0.001090198,-0.003342625,-0.015579836,-0.996931311,0.012271631237806625,0.009248733,0.076757885,0.020331368193898386,0.023050145689144874,2.9876732247547038,9.886913734732323,-0.231351683,-0.21679728,-99.28311028,-11.53363568,-34.84185753,-0.021077195,0.013010157217967857,0.001321031,-148.1111111,9.886913734732323,-0.231351683,-0.21679728,-51.10360268,-61.33403469,-8.62051981,-1.56E-04,-0.002261024,0.00116832,Home
66,0,0.17691805958747864,1.254399061203003,7.675000190734863,0.005500981,0,160.6999969482422,-86.9155118,40.384856,0.005850098,-0.003232257,-0.014966448,-0.996927602,0.012045831925877668,0.009323072,0.076833125,0.020446533,0.022586921,2.9875259978099935,9.896531567990202,-0.226455689,-0.217076057,-99.25602654,-11.53180576,-34.76255745,-0.021290695,0.012452684948672948,7.516979494186354E-4,-154.75,9.896531567990202,-0.226455689,-0.217076057,-51.07615295,-61.33208267,-8.542439842,-3.69E-04,-0.002818497,5.989861471162549E-4,Home
67,0,0.18384777009487152,1.2644076347351074,8.56499958,0.00486791,0,160.6999969482422,-86.9155117,40.384856,0.019031992325415976,-1.55E-04,-0.014749363,-0.99692979,0.011928602641161818,0.009303004,0.076825417,0.020388231,0.022356404,2.9875447062345653,9.935269689096987,-0.221867511,-0.217076057,-99.16818649,-11.47983374,-34.81879932,-0.021250436,0.012686827846874412,5.756060569323241E-4,-97.11111111,9.935269689096987,-0.221867511,-0.217076057,-50.98843483,-61.27986679,-8.597827826,-3.29E-04,-0.002584354,4.228942561894655E-4,Home
68,0,0.18384777009487152,1.2744628190994263,10.340999603271484,0.00870445,0,160.6999969482422,-86.9155116,40.3848559,0.007392763,-0.002712173,-0.01520175,-0.99693875,0.011992913643711979,0.009170277,0.076714975,0.020130938,0.022507301812033052,2.9877677079543328,9.947956974066576,-0.226432458,-0.21531048,-99.23101578,-11.53827169,-34.89407337,-0.021480473,0.012606879406907027,1.586423519980705E-4,-104.625,9.947956974066576,-0.226432458,-0.21531048,-51.04980103,-61.33830479,-8.674443874,-5.59E-04,-0.002664302,5.930553651550441E-6,Home
69,0,0.2617250382900238,1.2843798398971558,10.317999839782715,0.005508113,0,160.6999969482422,-86.9155116,40.3848559,-8.38E-04,-0.002019796,-0.011047841,-0.996941931,0.011948419789087426,0.009135548,0.076684724,0.020054126791294338,0.022424517199397087,2.987830215,9.946176945584492,-0.225064715,-0.210524834,-99.20661613,-11.5954897,-34.88199535,-0.021326278,0.013247379436365609,8.94031286786663E-4,-126,9.946176945584492,-0.225064715,-0.210524834,-51.02637691,-61.39527893,-8.662243853,-4.05E-04,-0.002023802,7.413194912657576E-4,Home
70,0,0.14866068959236145,1.2944597005844116,10.312999725341797,0.008734907,0,160.6999969482422,-86.9155115,40.3848558,-0.009996609,-0.004421601,-0.013901731,-0.996931804,0.01192223,0.009296172,0.076801115,0.020373076399408496,0.022345244233469362,2.9875937734992757,9.923996712397603,-0.226391803,-0.216286194,-99.24968269,-11.47214773,-34.80964931,-0.021219528,0.013211796096372373,5.381979399758563E-4,-68.5,9.923996712397603,-0.226391803,-0.216286194,-51.07115112,-61.27193707,-8.589653826,-2.98E-04,-0.002059386,3.8548613428273824E-4,Home
71,45,0.15620499849319458,1.104676604270935,10.145999908447266,0.10403143614530563,264.95159912109375,160.6999969482422,-86.9155138,40.3848557,0.004502259,-0.003572467,-0.01428976,-0.996930955,0.011997916,0.00931605,0.07679791,0.020424330842147752,0.022493173919835137,2.987597942352295,9.936578521361717,-0.226978784,-0.217240686,-99.22040161,-11.54412776,-34.81672543,-0.021266973,0.012761073828973239,5.381979309338896E-4,-70.66666667,9.936578521361717,-0.226978784,-0.217240686,-51.04052883,-61.34342896,-8.596851835,-3.45E-04,-0.002510108,3.8548613428273824E-4,Home
72,0,0.16278821229934692,1.1145641803741455,10.123000144958496,0.074931145,0,160.6999969482422,-86.9155144,40.3848557,0.001083643,-0.001460564,-0.009994799,-0.996921739,0.012060261,0.009453016,0.076890641,0.020709263920349982,0.022594445,2.987407318596701,9.940125067257187,-0.226284359,-0.215798336,-99.21381401,-11.53997979,-34.83002316,-0.021290695,0.012808518294353508,5.61920155147181E-4,-123.625,9.940125067257187,-0.226284359,-0.215798336,-51.03442875,-61.34025669,-8.611247845,-1.53E-04,-7.31E-04,8.451039292533131E-5,Home
73,0,0.15556348860263824,1.1246960163116455,10.093999862670898,0.032905057072639465,0,160.6999969482422,-86.9155144,40.3848556,-5.58E-04,-8.41E-04,-0.002219879,-0.996894502,0.012171726384498541,0.009829769,0.07717876,0.021484493,0.022752512192118515,2.986818077494797,9.938220126,-0.226865142,-0.215821568,-99.2235743,-11.53766176,-34.90785927,-0.021373723,0.012737351605325069,6.449479333947873E-4,-101.3333333,9.938220126,-0.226865142,-0.215821568,-51.04272491,-61.33745071,-8.687253866,-1.47E-04,-9.04E-05,3.4100656370514807E-5,Home
74,0,0.21931712329387665,1.1346404552459717,10.062000274658203,0.011647981591522694,0,160.6999969482422,-86.9155143,40.3848556,-4.32E-04,4.1533210902538114E-4,1.6477443639514516E-4,-0.996887481,0.012197332,0.009919156,0.077253993,0.021668468412120365,0.022788114,2.986664508152934,9.936416737084249,-0.225317356,-0.214845853,-99.22772224,-11.58902369,-34.86284119,-0.021136501,0.012595018295082942,5.619201500610747E-4,-67.11111111,9.936416737084249,-0.225317356,-0.214845853,-51.04772694,-61.38905685,-8.642357893,9.044098839597795E-5,-2.33E-04,-4.89E-05,Home
75,0,0.2121320366859436,1.144605278968811,10.057999610900879,0.003137929,0,160.6999969482422,-86.9155142,40.3848556,-0.001266461,-0.001317493,-6.58E-04,-0.996886859,0.012326731668928495,0.009934619,0.077239306,0.021719082384012066,0.023044051,2.986690321793923,9.934221425102752,-0.231006118,-0.216611431,-99.2681041,-11.56889379,-34.84027119,-0.021426642,0.013344663,4.933766103931703E-4,-92.625,9.934221425102752,-0.231006118,-0.216611431,-51.08871902,-61.36868282,-8.619787846,-2.00E-04,5.168707491695666E-4,-1.17E-04,Home
76,0,0.15556348860263824,1.1545463800430298,10.04800033569336,0.003857177,0,160.6999969482422,-86.9155141,40.3848556,-0.012934592,-0.003211243,-5.68E-04,-0.996880682,0.012308659475043561,0.01002206,0.077310561,0.021892311,0.022992921,2.9865458150511808,9.915781511843782,-0.231537533,-0.217935614,-99.26761604,-11.55754782,-34.83734291,-0.021290695,0.012689907203238565,5.381979382804875E-4,-69.66666667,9.915781511843782,-0.231537533,-0.217935614,-51.08688908,-61.35770287,-8.617469807,-6.38E-05,-1.38E-04,-7.26E-05,Home
77,0,0.20518285036087036,1.1645749807357788,10.043000221252441,0.008638578,0,160.6999969482422,-86.915514,40.3848555,-0.015403377,3.0215156888498845E-4,0.001202736,-0.9968874,0.012602590973877791,0.009902079,0.077191911,0.021695911323705925,0.023600177333048245,2.9867791481388424,9.882403984810542,-0.233335056,-0.213544902,-99.25431808,-11.59951577,-34.92054722,-0.021456751,0.012796657,5.856423770999807E-4,-73.75,9.882403984810542,-0.233335056,-0.213544902,-51.07456684,-61.39979282,-8.700551834,-2.30E-04,-3.11E-05,-2.52E-05,Home
78,0,0.1414213627576828,1.174568772315979,10.024999618530273,0.005572854,0,160.6999969482422,-86.915514,40.3848555,-0.002914105,-0.001378356,0.001513102,-0.996887526,0.012573671599542632,0.009891943,0.077196426,0.021671298167948584,0.023543991256975434,2.9867710719988185,9.879688772,-0.234107494,-0.212662112,-99.22869804,-11.57462774,-34.90663948,-0.021266973,0.012559434914400855,6.330868170497198E-4,-82.55555556,9.879688772,-0.234107494,-0.212662112,-51.04919098,-61.3747826,-8.687131863,-4.00E-05,-2.68E-04,2.223954454643055E-5,Home
79,0,0.1414213627576828,1.1845358610153198,10.008999824523926,0.002562136,0,160.6999969482422,-86.915514,40.3848555,0.002621391,0.002307267,-1.04E-04,-0.99689096,0.012625183412823284,0.009845988,0.077149512,0.021586529,0.023654831302108117,2.986864962624115,9.884710119320797,-0.231249628,-0.213559421,-99.26090591,-11.62171974,-34.8514954,-0.021456751,0.013022018316228992,5.263368095027156E-4,-85,9.884710119320797,-0.231249628,-0.213559421,-51.08103294,-61.42150864,-8.631621809,-2.30E-04,1.9422569142618371E-4,-8.45E-05,Home
80,0,0.19798989593982697,1.1945581436157227,9.996000289916992,0.007250973,0,160.6999969482422,-86.9155139,40.3848554,0.002372529,-0.002586362,-5.48E-04,-0.996890321,0.012646231330135494,0.009870335,0.077151242,0.021638395463668025,0.023693001856213633,2.986860391005729,9.888693865063122,-0.237473128,-0.214474152,-99.28603821,-11.5642577,-34.76682732,-0.021397445,0.012713629390718868,6.449479260481894E-4,-41.66666667,9.888693865063122,-0.237473128,-0.214474152,-51.10579887,-61.36453476,-8.545611877,-1.71E-04,-1.14E-04,3.410065524026896E-5,Home
81,0,0.19798989593982697,1.2046144008636475,10.126999855041504,0.007655706,0,160.6999969482422,-86.9155138,40.3848554,0.009372332,0.001009771,-3.81E-04,-0.996896328,0.012635170093294486,0.009809982,0.077083182,0.021514682352398205,0.023681750376392335,2.986998650634173,9.902838827336875,-0.233105646,-0.213080275,-99.23077263,-11.5971977,-34.83648914,-0.021302556,0.012642462755942229,7.872812809350277E-4,-77.375,9.902838827336875,-0.233105646,-0.213080275,-51.05138687,-61.39710876,-8.615517864,-7.56E-05,-1.85E-04,1.764339988246488E-4,Home
82,0,0.2121320366859436,1.2146676778793335,10.144000053405762,0.004920703,0,160.6999969482422,-86.9155138,40.3848554,0.017406509917916604,0.002104977,-2.16E-05,-0.996896897,0.012320622376808263,0.00984384,0.077122386,0.021534357075262994,0.023048458675157677,2.986927145893134,9.940703049446773,-0.226487632,-0.213823677,-99.21918251,-11.57609177,-34.80086517,-0.021302556,0.013140629425427867,0.001024504,-154.1111111,9.940703049446773,-0.226487632,-0.213823677,-51.03906475,-61.37600281,-8.580747852,-7.56E-05,3.128368107972721E-4,4.136562545205132E-4,Home
83,0,0.20518285036087036,1.2248220443725586,10.154000282287598,0.005290342,0,160.6999969482422,-86.915514,40.3848554,0.006836029,-7.91E-04,-2.13E-04,-0.996896066,0.012213240449245159,0.009883469,0.077145135,0.021597268561331127,0.022827717708423734,2.9868833078787875,9.950204673,-0.227713083,-0.214892316,-99.19709991,-11.60964172,-34.8471032,-0.021438389,0.012804298509413807,4.11147182883444E-4,-149.2222222,9.950204673,-0.227713083,-0.214892316,-51.01661671,-61.40991871,-8.626863804,-2.11E-04,-2.35E-05,-2.00E-04,Home
84,0,0.18384777009487152,1.2345784902572632,10.159000396728516,7.326439372263849E-4,0,160.6999969482422,-86.9155139,40.3848554,-0.011303235,-0.002808792,1.1192681719955889E-4,-0.996898677,0.012342657107244996,0.009843049,0.077095992,0.021535585896627418,0.023093088918808593,2.9869795493709232,9.930083293359257,-0.232353533,-0.213986296,-99.24187439,-11.62891775,-34.82819336,-0.021492334,0.012772934918192405,5.619201675798852E-4,-148.25,9.930083293359257,-0.232353533,-0.213986296,-51.06248878,-61.42870667,-8.607953825,-2.65E-04,-5.49E-05,-4.89E-05,Home
85,0,0.16278821229934692,1.2445412874221802,10.156000137329102,3.4778399276547134E-4,0,160.6999969482422,-86.9155139,40.3848554,-0.010141873,-0.001407419,-9.70E-04,-0.996897482,0.012545783777983443,0.009857772,0.077076843,0.021595994733925004,0.023496270016993132,2.9870125113181696,9.907125093,-0.234400791,-0.215147861,-99.17440819,-11.57645776,-34.80720921,-0.021314417,0.012642462719774362,8.465868462718011E-4,-154.6666667,9.907125093,-0.234400791,-0.215147861,-50.99502285,-61.3763689,-8.586969795,-8.75E-05,-1.85E-04,2.3573958111510984E-4,Home
86,0,0.20518285036087036,1.1039023399353027,10.043000221252441,0.07682427,0,160.6999969482422,-86.9155156,40.3848552,0.005146314,-4.51E-04,-0.00181759,-0.996897235,0.012496459985025299,0.009881179,0.077085024,0.021635228,0.023394124311150857,2.986996794209897,9.922155509874658,-0.232420323,-0.216379118,-99.18831642,-11.53766177,-34.83026733,-0.021302556,0.012630601594387328,8.228646231887555E-4,-155,9.922155509874658,-0.232420323,-0.216379118,-51.00832073,-61.33769474,-8.610149832,-7.56E-05,-1.97E-04,2.1201735859718715E-4,Home
87,0,0.14866068959236145,1.1138676404953003,10.024999618530273,0.054124776273965836,0,160.6999969482422,-86.915516,40.3848552,0.005984316,7.703651502294447E-4,-1.75E-04,-0.996894821,0.012442029732306606,0.009932582,0.077118422,0.021730094,0.023276919734130784,2.9869299837686483,9.929578359310444,-0.230421344,-0.215699156,-99.1752623,-11.56986973,-34.78695721,-0.021433028,0.012784796061663373,6.093646063993785E-4,-145.3333333,9.929578359310444,-0.230421344,-0.215699156,-50.99477901,-61.37002468,-8.567327805,-2.06E-04,-4.30E-05,-1.48E-06,Home
88,0,0.18439088761806488,1.1238856315612793,9.984000205993652,0.022046674,0,160.6999969482422,-86.9155159,40.3848552,0.004058106,-1.78E-04,0.001363767,-0.996900258,0.012369918691229474,0.009880366,0.077066392,0.021613559767025187,0.023142326,2.9870373878664185,9.938490200968621,-0.229798091,-0.213382283,-99.1717244,-11.58353374,-34.85539936,-0.021314417,0.012820379392614642,5.619201602332873E-4,-155,9.938490200968621,-0.229798091,-0.213382283,-50.99209476,-61.3834449,-8.634915848,-8.75E-05,-7.41E-06,-4.89E-05,Home
89,0,0.18439088761806488,1.133890151977539,9.975000381469727,0.006929011,0,160.6999969482422,-86.9155159,40.3848552,1.723372820511605E-4,-8.90E-04,-3.20E-04,-0.996907206,0.012354915211139952,0.00978787,0.076990694,0.021424994017313986,0.023128313166134565,2.9871917650537583,9.938074889692288,-0.230677975,-0.213382283,-99.221866,-11.56938174,-34.81465149,-0.021243251,0.012678046041683665,7.754201708063122E-4,-145.1111111,9.938074889692288,-0.230677975,-0.213382283,-51.04174896,-61.36953674,-8.593801823,-1.63E-05,-1.50E-04,1.6457289660765418E-4,Home
90,0,0.2121320366859436,1.143983244895935,9.93500042,0.002543899,0,160.6999969482422,-86.9155157,40.3848552,-5.24E-04,-5.68E-04,1.877990451831262E-4,-0.996917795,0.012307403,0.009651523,0.076878253,0.021143079,0.023056984,2.9874216584325994,9.936942425,-0.229830034,-0.209781433,-99.30384995,-11.62879578,-34.87626144,-0.021433028,0.012488268288666183,4.0772570369457733E-4,-121,9.936942425,-0.229830034,-0.209781433,-51.12312305,-61.42907269,-8.656265888,-2.06E-04,-3.40E-04,-2.03E-04,Home
91,0,0.2121320366859436,1.1538147926330566,9.93500042,0.006736699,0,160.6999969482422,-86.9155156,40.3848552,-0.012224372,-0.001161463,6.1361391383868E-4,-0.996925679,0.012463208296909355,0.009511194,0.076768403,0.0208847,0.023391598,2.9876414170631995,9.917015686775875,-0.233378613,-0.206784598,-99.3184903,-11.6611258,-34.95751347,-0.021332665,0.012722069003547613,6.108472499853143E-4,-151.125,9.917015686775875,-0.233378613,-0.206784598,-51.13812904,-61.46115868,-8.737883883,-1.06E-04,-1.06E-04,-2.52E-11,Home
92,0,0.17691805958747864,1.163865566253662,9.93500042,0.006636436,0,160.6999969482422,-86.9155156,40.3848551,-0.016701485,-0.001975468,-6.93E-04,-0.99692376,0.012631668139574597,0.009498176,0.076767448,0.020884713356934703,0.023729545199899997,2.987639501,9.881129042616168,-0.236811036,-0.207411842,-99.29957993,-11.66051574,-34.93262562,-0.021361862,0.012820379410698576,7.279757297263273E-4,-143.6666667,9.881129042616168,-0.236811036,-0.207411842,-51.12019501,-61.46042667,-8.713605862,-1.35E-04,-7.41E-06,1.171284606137756E-4,Home
93,0,0.15556348860263824,1.1738823652267456,9.93500042,0.00681397,0,160.6999969482422,-86.9155155,40.3848551,-0.004234629,-0.003133746,-3.89E-04,-0.99691156,0.012736161,0.009641945,0.076890527,0.021190551046318222,0.023913169,2.987386608586728,9.876900978458737,-0.239398421,-0.209781433,-99.30873047,-11.6233058,-34.92457314,-0.021290695,0.013401573921725588,0.001249865,-120.375,9.876900978458737,-0.239398421,-0.209781433,-51.12885681,-61.42358295,-8.703235855,-6.38E-05,5.737812658410194E-4,6.39017372396639E-4,Home
94,0,0.18384777009487152,1.1839145421981812,9.935999870300293,0.003802726,0,160.6999969482422,-86.9155155,40.3848551,0.002742073,-7.38E-04,-1.25E-04,-0.9968976,0.012639037713191463,0.009831325,0.077063319,0.021557382099981447,0.023686590866701118,2.9870378832215243,9.884294389521035,-0.234821857,-0.213149969,-99.23357826,-11.59365976,-34.96324722,-0.021551639,0.012855962723565912,4.433090391668301E-4,-46,9.884294389521035,-0.234821857,-0.213149969,-51.05443691,-61.39332684,-8.74398385,-3.25E-04,2.8170140017077183E-5,-1.68E-04,Home
95,0,0.15556348860263824,1.193886160850525,9.958999633789062,0.007771531,0,160.6999969482422,-86.9155154,40.384855,0.003545326,4.184995461436151E-4,4.797669000995969E-4,-0.996894386,0.012732554787715662,0.009850506,0.077087023,0.021610706,0.023869591,2.9869874935705685,9.890749656,-0.235744798,-0.213191294,-99.26834854,-11.64770572,-34.88431343,-0.021350001,0.012832241,6.093645911410595E-4,-76.875,9.890749656,-0.235744798,-0.213191294,-51.08823086,-61.4473727,-8.66309783,-1.23E-04,4.44790732694193E-6,-1.48E-06,Home
96,0,0.18384777009487152,1.2038873434066772,10.16100025177002,0.004730014,0,160.6999969482422,-86.9155154,40.384855,0.011123092429151812,0.002452051,0.001197687,-0.996894753,0.012542805607313091,0.009865779,0.077111448,0.021612318540082394,0.023488339832396184,2.9869429625353767,9.906799649729312,-0.229815515,-0.2128015,-99.21625435,-11.57121175,-34.86284142,-0.021350001,0.012891546077122099,7.161146071649076E-4,-125.2222222,9.906799649729312,-0.229815515,-0.2128015,-51.03723476,-61.37124477,-8.641259842,-1.23E-04,6.375346305662567E-5,1.052673318360037E-4,Home
97,0,0.191049725,1.2139414548873901,10.25,0.003419769,0,160.6999969482422,-86.9155154,40.3848551,0.017959992862442164,0.001459363,-2.97E-04,-0.996894292,0.012329033,0.0098888,0.07714888,0.021625937,0.023057703236208378,2.9868727424769728,9.945146023648457,-0.227260072,-0.214776159,-99.24285011,-11.55827976,-34.89248734,-0.021350001,0.013164351649076035,8.58447952444656E-4,-155.375,9.945146023648457,-0.227260072,-0.214776159,-51.06273289,-61.35819096,-8.672491856,-1.23E-04,3.36559038401301E-4,2.476006822018586E-4,Home
98,0,0.18384777009487152,1.2239668369293213,10.35200023651123,0.004517246,0,160.6999969482422,-86.9155153,40.384855,0.004331626,-9.98E-04,-4.25E-04,-0.996893852,0.012097252559965676,0.009918405,0.077187542,0.021649924441448695,0.022590114111171185,2.986800353503922,9.949786463987481,-0.226281455,-0.216077112,-99.20917847,-11.53278169,-34.83343945,-0.021255112,0.012689907158028733,6.805312807346215E-4,-101.6666667,9.949786463987481,-0.226281455,-0.216077112,-51.02967064,-61.33293674,-8.613199778,-2.82E-05,-1.38E-04,6.968400879645521E-5,Home
99,0,0.17691805958747864,1.2339730262756348,10.461000442504883,0.003387325,0,160.6999969482422,-86.9155153,40.384855,-6.80E-04,-8.71E-05,0.001077045,-0.99689413,0.012103198,0.009929636,0.077181508,0.021673115,0.022600358442484755,2.9868120591617324,9.946978319038465,-0.224707534,-0.214172146,-99.20783646,-11.53156173,-34.83246319,-0.021314417,0.013033879,8.228646107560512E-4,-97.66666667,9.946978319038465,-0.224707534,-0.214172146,-51.02845081,-61.33159485,-8.613565807,-8.75E-05,2.0608679703391583E-4,2.1201733825276198E-4,Home
100,0,0.17691805958747864,1.2439298629760742,10.531000137329102,0.00520056,0,160.6999969482422,-86.9155152,40.384855,-0.0022962,-0.00102226,-3.00E-04,-0.996890292,0.012020867362690087,0.009992946,0.077235857,0.021787832097078744,0.022425217356962655,2.986703700744189,9.943008617290015,-0.223816034,-0.21712252,-99.19685616,-11.53680775,-34.85832737,-0.02127393,0.013109722120973926,6.225942986650177E-4,-70.5,9.943008617290015,-0.223816034,-0.21712252,-51.01673889,-61.3368409,-8.638331852,-4.70E-05,2.819294929325294E-4,1.1747028530897716E-5,Home
101,45,0.15556348860263824,1.1039769649505615,10.456999778747559,0.1096273884177208,299.6533508300781,160.6999969482422,-86.9155174,40.3848559,-0.001092392,-3.68E-04,0.001697032,-0.996895088,0.012182123841518917,0.009909063,0.077159364,0.021643822379771947,0.022761398,2.9868549606175097,9.941306928986485,-0.226699618,-0.213498438,-99.24016663,-11.55425375,-34.87138138,-0.02133814,0.012606879388823093,5.619201455400913E-4,-110.2222222,9.941306928986485,-0.226699618,-0.213498438,-51.06041481,-61.35428684,-8.650287828,-1.11E-04,-2.21E-04,-4.89E-05,Home
102,0,0.15556348860263824,1.113911747932434,10.388999938964844,0.075563453,0,160.6999969482422,-86.9155178,40.3848561,-0.001532268,5.260429625372285E-4,0.00145623,-0.99690236,0.012203229,0.009790682,0.077077205,0.021409103,0.022823554,2.9870219369536466,9.937642181,-0.226313396,-0.211337929,-99.20905602,-11.57853178,-34.95702549,-0.021385584,0.012903407207030116,3.6028125922385495E-4,-133.125,9.937642181,-0.226313396,-0.211337929,-51.02918293,-61.37856461,-8.736907864,-1.59E-04,7.561457544583284E-5,-2.51E-04,Home
103,0,0.2475883662700653,1.1239427328109741,10.319000244140625,0.0358072,0,160.6999969482422,-86.9155178,40.3848562,-9.01E-04,-3.70E-04,0.001519839,-0.996900275,0.012221079256421732,0.009803509,0.077099767,0.021437968461982256,0.022856685757926366,2.9869759244826235,9.936506799,-0.227477866,-0.211523779,-99.24687653,-11.57609172,-34.93909138,-0.021314417,0.013128768354292634,5.26336828716895E-4,-149.2222222,9.936506799,-0.227477866,-0.211523779,-51.06724686,-61.3762468,-8.719339876,-8.75E-05,3.0097570405929414E-4,-8.45E-05,Home
104,0,0.15556348860263824,1.133950114250183,10.243000030517578,0.010204489342868328,0,160.6999969482422,-86.9155177,40.3848561,-9.74E-04,1.746986097502477E-4,6.351884707663823E-4,-0.996895608,0.012199358680077549,0.009858201,0.077156495,0.021544977751316377,0.022803693593850413,2.986861432640298,9.934614264048063,-0.226147624,-0.213375358,-99.2534642,-11.55254571,-34.86747726,-0.021089056,0.013413435029028689,8.584479535749019E-4,-156.75,9.934614264048063,-0.226147624,-0.213375358,-51.07261486,-61.35257885,-8.647359858,1.3788542778059407E-4,5.856423838814557E-4,2.4760068446235024E-4,Home
105,0,0.2121320366859436,1.1439019441604614,10.180000305175781,0.0020224,0,160.6999969482422,-86.9155176,40.3848561,-0.001867729,-4.06E-04,0.001600076,-0.996891455,0.012146690959852297,0.009921314,0.077210383,0.021663914497905563,0.02268775,2.9867532230117946,9.931898246691064,-0.225863292,-0.213568133,-99.21027634,-11.56120771,-34.85295944,-0.021350001,0.012891546072601115,4.077257127365441E-4,-118.8888889,9.931898246691064,-0.225863292,-0.213568133,-51.03003704,-61.36099686,-8.633207798,-1.23E-04,6.375346475199444E-5,-2.03E-04,Home
106,0,0.15556348860263824,1.1539033651351929,10.11299991607666,0.001017108,0,160.6999969482422,-86.9155176,40.3848561,-0.011502923,-0.002373084,6.333635848702736E-4,-0.996892689,0.012280945123616353,0.009901389,0.077175773,0.021644222,0.022959289819146824,2.9868197117036988,9.912261999926521,-0.230134944,-0.214195377,-99.24236176,-11.5371738,-34.8408812,-0.021350001,0.012962713,4.7889237407396E-4,-74,9.912261999926521,-0.230134944,-0.214195377,-51.06114704,-61.33708473,-8.621373844,-1.23E-04,1.3492013795699166E-4,-1.32E-04,Home
107,0,0.16970562934875488,1.1638253927230835,10.071999549865723,0.006938976,0,160.6999969482422,-86.9155175,40.384856,-0.015476088,-0.002972539,-4.52E-04,-0.996893455,0.012534463,0.009876333,0.077128158,0.021632480353695676,0.023469707485541558,2.986909382551619,9.882424308258352,-0.235187751,-0.215054934,-99.23919014,-11.58902375,-34.8158712,-0.021195806,0.013140629353092133,6.568090604771905E-4,-68.875,9.882424308258352,-0.235187751,-0.215054934,-51.05895107,-61.38905666,-8.596119823,3.113543549190881E-5,3.1283681588337837E-4,4.596176197824692E-5,Home
108,0,0.17691805958747864,1.1738368272781372,10.053000450134277,0.004815304,0,160.6999969482422,-86.9155175,40.384856,-0.001467989,0.002126649,-6.97E-04,-0.996890644,0.012614530341054957,0.009930101,0.077144532,0.021752525,0.023620691526537903,2.9868732507412252,9.879793370811685,-0.231743711,-0.215264016,-99.31031609,-11.61098378,-34.75731148,-0.021309171,0.012463633647152724,4.6988247889273154E-4,-103.8888889,9.879793370811685,-0.231743711,-0.215264016,-51.13019882,-61.41089485,-8.537315817,-8.22E-05,-3.64E-04,-1.41E-04,Home
109,0,0.15556348860263824,1.183853268623352,10.03499984741211,0.005576534,0,160.6999969482422,-86.9155174,40.384856,0.002118879,1.7915405694720815E-4,0.002035072,-0.996893504,0.012616298812468655,0.009906676,0.077110341,0.02170527,0.023628583232175957,2.9869423468136094,9.884730042763127,-0.233366996,-0.212476261,-99.18538811,-11.58243577,-34.90249111,-0.021278834,0.012903407207030116,8.703090574872653E-4,-152.25,9.884730042763127,-0.233366996,-0.212476261,-51.0056369,-61.38259064,-8.682983856,-5.19E-05,7.561457544583284E-5,2.59461785549099E-4,Home
110,0,0.2420743703842163,1.1938854455947876,10.008999824523926,0.003293378,0,160.6999969482422,-86.9155174,40.384856,0.00202028,-5.98E-04,3.2265860478854875E-4,-0.996894637,0.012595928925116665,0.009893989,0.077100761,0.021676572708828935,0.023590139086240705,2.986962390177458,9.889495368,-0.233825817,-0.214009527,-99.24223999,-11.60244374,-34.85027523,-0.02133814,0.012713629399760834,4.314479284729917E-4,-125.3333333,9.889495368,-0.233825817,-0.214009527,-51.06297668,-61.40259869,-8.630279884,-1.11E-04,-1.14E-04,-1.79E-04,Home
111,0,0.16970562934875488,1.2039622068405151,10.092000007629395,0.001257762,0,160.6999969482422,-86.9155174,40.384856,0.007662755,3.837836020201155E-4,-4.34E-04,-0.996898874,0.012626357,0.009827744,0.077049446,0.021547941,0.023662161,2.9870661392952633,9.899667832457904,-0.233692235,-0.213591364,-99.23955627,-11.58280172,-34.89626923,-0.02144489,0.013069462745441395,5.619201602332873E-4,-63.125,9.899667832457904,-0.233692235,-0.213591364,-51.05943874,-61.38283478,-8.677005844,-2.18E-04,2.4167015737157712E-4,-4.89E-05,Home
112,0,0.14866068959236145,1.2139395475387573,10.092000007629395,4.7694784007035196E-4,0,160.6999969482422,-86.9155174,40.384856,0.019953005522200206,-5.73E-04,0.002853076,-0.996894478,0.012401137491959391,0.00990912,0.077132253,0.021677279,0.023198699126544507,2.9869037924460993,9.942359337439903,-0.229662082,-0.212708129,-99.22528191,-11.59097572,-34.84759125,-0.021373723,0.012998296110664756,9.058923901339034E-4,-48.88888889,9.942359337439903,-0.229662082,-0.212708129,-51.04553108,-61.39088673,-8.628449755,-1.47E-04,1.7050349603416127E-4,2.950451170654913E-4,Home
113,0,0.1414213627576828,1.223861813545227,10.092000007629395,1.3351177040021867E-4,0,160.6999969482422,-86.9155174,40.384856,0.007248166,0.002133617,-0.00158956,-0.996897903,0.012186369912933957,0.009881993,0.077125574,0.021589707,0.022774774382270657,2.986923250179846,9.951804549948683,-0.225662923,-0.216448811,-99.21698639,-11.51838578,-34.87430912,-0.021255112,0.012938990506334501,8.110035384905715E-4,-70.125,9.951804549948683,-0.225662923,-0.216448811,-51.03723476,-61.31805279,-8.65406992,-2.82E-05,1.1119792109029819E-4,2.0015621117035887E-4,Home
114,0,0.14866068959236145,1.2339023351669312,10.092000007629395,1.7449936422053725E-5,0,160.6999969482422,-86.9155174,40.384856,-0.00276672,-0.002665393,6.917389561829058E-4,-0.996895148,0.0121136,0.009926206,0.077167144,0.021667559730630476,0.022621949935711705,2.9868406879091727,9.945529243321095,-0.227152629,-0.214311534,-99.22906395,-11.56523373,-34.85491131,-0.021433029,0.012855962705481979,7.872812831955194E-4,-100.6666667,9.945529243321095,-0.227152629,-0.214311534,-51.04955673,-61.36514477,-8.635769873,-2.06E-04,2.817014284269179E-5,1.7643399486878833E-4,Home
115,0,0.1414213627576828,1.243951439857483,10.092000007629395,1.1243986591580324E-5,0,160.6999969482422,-86.9155174,40.384856,-0.005865467,9.28742937671328E-4,4.4586111619634533E-4,-0.996890907,0.012095812500174184,0.009984358,0.07721732,0.021781919,0.022576394192512752,2.9867391794630627,9.932258328187812,-0.223984461,-0.215984186,-99.21015427,-11.53595377,-34.82929138,-0.021433029,0.013188074,6.568090587818217E-4,-154.5555556,9.932258328187812,-0.223984461,-0.215984186,-51.03015888,-61.33598686,-8.610271788,-2.06E-04,3.6028125752848617E-4,4.596178627853255E-5,Home
116,0,0.1063014566898346,1.103026032447815,9.93500042,0.070096716,0,160.6999969482422,-86.9155189,40.3848558,-7.94E-05,-0.001361437,6.502852416955507E-4,-0.996886706,0.012103370972909033,0.010042242499856422,0.077262887,0.021899572,0.022581511,2.9866462556215434,9.934436270334189,-0.225567093,-0.21693667,-99.21783989,-11.57511574,-34.87723713,-0.021403148,0.012851286760101525,6.578355006730327E-4,-152,9.934436270334189,-0.225567093,-0.21693667,-51.03796673,-61.37527084,-8.657973862,-1.76E-04,2.3494117508212534E-5,4.698822774046745E-5,Home
117,0,0.1063014566898346,1.1130176782608032,9.93500042,0.0504108,0,160.6999969482422,-86.9155193,40.3848557,0.001259535,-4.19E-04,8.752087076890815E-4,-0.996897197,0.012191369767906596,0.009887636,0.077133441,0.021601918650772964,0.022783713,2.9869072205812026,9.936654887153107,-0.226748985,-0.213753984,-99.20222443,-11.56328172,-34.8854113,-0.021516056,0.012761073874183071,3.12836811362395E-4,-145.8888889,9.936654887153107,-0.226748985,-0.213753984,-51.02222881,-61.36282677,-8.666025839,-2.89E-04,-6.67E-05,-2.98E-04,Home
118,0,0.15620499849319458,1.1229679584503174,9.93500042,0.020860904827713966,0,160.6999969482422,-86.9155192,40.3848557,-6.33E-05,9.019816095389209E-4,0.001355865,-0.996902157,0.012260364070173028,0.00981191,0.077068197,0.021460088150738514,0.022934402348202407,2.9870380938631818,9.936779753675738,-0.226955163,-0.21189548,-99.23504227,-11.59634372,-34.9171312,-0.021492334,0.012879684965298014,6.212257261351835E-4,-144,9.936779753675738,-0.226955163,-0.21189548,-51.05516888,-61.39601093,-8.697501879,-2.65E-04,5.189235970938524E-5,1.0378456457508999E-5,Home
119,0,0.15620499849319458,1.133034586906433,9.93500042,0.003680696,0,160.6999969482422,-86.9155191,40.3848557,-8.19E-04,-3.37E-04,0.001853636,-0.996903226,0.012187743613731514,0.009803783,0.077066912,0.021432595,0.022790879282413176,2.9870426839995154,9.935107092255528,-0.22674608,-0.211105616,-99.18026421,-11.62098769,-34.85844933,-0.021373723,0.013223657276011208,6.093646160064681E-4,-101.7777778,9.935107092255528,-0.22674608,-0.211105616,-51.00039089,-61.42102066,-8.638941851,-1.47E-04,3.9586460147758275E-4,-1.48E-06,Home
120,0,0.16278821229934692,1.1430583000183105,9.93500042,0.001867418,0,160.6999969482422,-86.915519,40.3848557,-6.65E-04,-1.89E-04,0.001380242,-0.996902384,0.012194280024364736,0.009814875,0.077075279,0.021455923131513364,0.022802020305568733,2.9870254877701545,9.933852104040293,-0.226650922,-0.211741796,-99.18843788,-11.65831975,-34.80330536,-0.021373723,0.013033879477783892,6.805312863858508E-4,-110.875,9.933852104040293,-0.226650922,-0.211741796,-51.00880901,-61.45810879,-8.583187857,-1.47E-04,2.0608681624809515E-4,6.96840189686678E-5,Home
121,0,0.15620499849319458,1.1529265642166138,9.93500042,0.007514543,0,160.6999969482422,-86.9155189,40.3848556,-0.00904549,-0.002210469,3.7347937671883594E-4,-0.996900292,0.012214626637694327,0.00981262,0.077099441,0.021455131977507213,0.02284242,2.986976535574904,9.920692073488699,-0.229098249,-0.212755037,-99.21881615,-11.60646974,-34.87003956,-0.021266973,0.012891546118376071,7.99142399540587E-4,-137.3333333,9.920692073488699,-0.229098249,-0.212755037,-51.03979664,-61.40638065,-8.650043812,-4.00E-05,6.375348170568208E-5,1.8829512703729775E-4,Home
122,0,0.15620499849319458,1.1629520654678345,9.93500042,0.011329488828778267,0,160.6999969482422,-86.9155188,40.3848555,-0.01836599,-0.004360649,-3.69E-04,-0.996897098,0.012434296780130237,0.009836511,0.0771025,0.021536906927968693,0.023276690212846958,2.986964343820961,9.881991553075105,-0.234763779,-0.21387014,-99.23308998,-11.61232577,-34.79586319,-0.021421167,0.012938990537981384,7.872812956282236E-4,-108.125,9.881991553075105,-0.234763779,-0.21387014,-51.05297302,-61.41235867,-8.576233807,-1.94E-04,1.1119792617640449E-4,1.764340208644427E-4,Home
123,0,0.16278821229934692,1.1729575395584106,9.93500042,0.006789996,0,160.6999969482422,-86.9155188,40.3848555,-0.002837598,5.135259147986625E-4,0.00165109,-0.996889526,0.012520503759094812,0.009959151,0.077170653,0.021796486,0.023428146700257238,2.9868225796708785,9.879256118848486,-0.231035157,-0.213451975,-99.22198792,-11.54534776,-34.82441151,-0.021266973,0.012879685001465881,7.991423955847265E-4,-97.22222222,9.879256118848486,-0.231035157,-0.213451975,-51.04113869,-61.34562485,-8.604293852,-4.00E-05,5.1892356883770634E-5,1.8829511573483933E-4,Home
124,0,0.16278821229934692,1.182932973,9.93500042,0.002985849,0,160.6999969482422,-86.9155188,40.3848555,8.968206552358774E-4,-5.10E-04,-0.002430864,-0.996896185,0.012570437733442165,0.0098904,0.077085308,0.021665096,0.023540201,2.986994133545802,9.881547344541087,-0.233224704,-0.216541737,-99.25065849,-11.5398578,-34.83026745,-0.021544112,0.012910022091371222,4.3464129927227844E-4,-118.125,9.881547344541087,-0.233224704,-0.216541737,-51.07127277,-61.33964691,-8.610149813,-3.17E-04,8.222942079345767E-5,-1.76E-04,Home
125,0,0.16278821229934692,1.1929290294647217,9.93500042,0.004556168,0,160.6999969482422,-86.9155187,40.3848555,0.003031638,-3.11E-04,0.002058611,-0.996894926,0.012498882581091043,0.009915923,0.07710994,0.021705492,0.023393038153937718,2.986945923092296,9.888775168113337,-0.231633362,-0.212522725,-99.30458221,-11.59329373,-34.85173931,-0.021409306,0.012820379419740542,5.975034838379587E-4,-90.66666667,9.888775168113337,-0.231633362,-0.212522725,-51.12422089,-61.39320488,-8.631377811,-1.82E-04,-7.41E-06,-1.33E-05,Home
126,0,0.16278821229934692,1.2030577659606934,10.107999801635742,0.002710085,0,160.6999969482422,-86.9155187,40.3848555,0.008778239,0.00121175,-2.66E-04,-0.996899601,0.012520455719125502,0.009850202,0.077054404,0.021576449076093518,0.023447411948616066,2.987058338609714,9.900864194,-0.230762189,-0.213707521,-99.30104416,-11.56803979,-34.86369553,-0.021385584,0.012761073788284387,6.212257069210043E-4,-74.625,9.900864194,-0.230762189,-0.213707521,-51.12068279,-61.36807266,-8.643089809,-1.59E-04,-6.67E-05,1.0378431592100454E-5,Home
127,0,0.16278821229934692,1.2129825353622437,10.107999801635742,0.005109815,0,160.6999969482422,-86.9155187,40.3848556,0.019349496,2.651839580350709E-4,3.05180121394037E-4,-0.99689838,0.012359735619240595,0.00987606,0.077092708,0.021604010021512948,0.023122108695142477,2.986984935779016,9.942578871,-0.229202789,-0.214079222,-99.2467543,-11.6599058,-34.91225124,-0.021409306,0.013069462759004346,5.737812647107736E-4,-75.33333333,9.942578871,-0.229202789,-0.214079222,-51.06639278,-61.45981655,-8.691767845,-1.82E-04,2.4167015285059376E-4,-3.71E-05,Home
128,0,0.16278821229934692,1.223005771636963,10.107999801635742,0.003646386,0,160.6999969482422,-86.9155187,40.3848556,0.006242113,3.925405659721893E-4,0.00103562,-0.99690191,0.012162877364283047,0.009838674,0.077083223,0.021498712,0.022735548,2.9870097683471384,9.951545238494873,-0.225980817,-0.212846176,-99.22345222,-11.62964981,-34.87674934,-0.021290695,0.012832240527043643,7.51697937551054E-4,-77.55555556,9.951545238494873,-0.225980817,-0.212846176,-51.04370094,-61.42931679,-8.656753864,-6.38E-05,4.447902240835637E-6,1.4085066504776478E-4,Home
129,0,0.16278821229934692,1.233021617,10.107999801635742,0.00430578,0,160.6999969482422,-86.9155186,40.3848556,-6.97E-04,-0.001482981,5.992418064654452E-4,-0.996904491,0.012169095777987856,0.009803413,0.077053392,0.021428664639881512,0.022754033665778568,2.9870702757418734,9.948009231715526,-0.227425597,-0.212336875,-99.24407036,-11.59731976,-34.90066132,-0.021350001,0.013010157163716058,8.94031272093467E-4,-82.625,9.948009231715526,-0.227425597,-0.212336875,-51.06419701,-61.39723095,-8.680909853,-1.23E-04,1.8236458299283697E-4,2.831839990250549E-4,Home
130,0,0.16278821229934692,1.2430081367492676,10.107999801635742,0.002789246,0,160.6999969482422,-86.9155186,40.3848556,-0.002516293,0.001109196,0.001275514,-0.996901139,0.01214528,0.009836902,0.077096202,0.021492743,0.022700453303681995,2.986984215893792,9.941881985340304,-0.224817884,-0.212151024,-99.20917831,-11.58292377,-34.94836327,-0.021361862,0.012844101652430677,5.500590489743259E-4,-76.88888889,9.941881985340304,-0.224817884,-0.212151024,-51.02857296,-61.38283463,-8.729099913,-1.35E-04,1.6309022541763712E-5,-6.08E-05,Home
131,0,0.16278821229934692,1.102573037147522,9.93500042,0.073312148,0,160.6999969482422,-86.9155202,40.3848559,-0.004667097,-0.001112865,0.001492082,-0.996896872,0.01217205,0.009870236,0.077142891,0.021564446,0.022747672,2.986889128546113,9.931933134504892,-0.227504001,-0.213289358,-99.22967377,-11.58194772,-34.92262127,-0.021314418,0.013140629,7.754201611992225E-4,-72.25,9.931933134504892,-0.227504001,-0.213289358,-51.04931293,-61.38149269,-8.702625904,-8.75E-05,3.128368181438701E-4,1.645728864354416E-4,Home
132,0,0.14866068959236145,1.112589955329895,9.93500042,0.049525239,0,160.6999969482422,-86.9155205,40.384856,8.779030579787034E-4,-0.001582416,-1.25E-04,-0.996892687,0.012126225055768512,0.009928321,0.07719674,0.021674403204367712,0.022646150981577542,2.9867809552412767,9.935069371195672,-0.22632211,-0.215473099,-99.25297646,-11.54571374,-34.86345146,-0.021285677,0.013121469,0.001010247,-118.2222222,9.935069371195672,-0.22632211,-0.215473099,-51.07334679,-61.34599056,-8.643089886,-5.87E-05,2.9367655840290425E-4,3.9940009838364157E-4,Home
133,0,0.14866068959236145,1.1224931478500366,9.93500042,0.02348686,0,160.6999969482422,-86.9155205,40.384856,-5.62E-04,-1.49E-05,0.002236024,-0.996894074,0.012123369051197779,0.009916735,0.077180824,0.021650493,0.022642597700785666,2.9868132142187322,9.934569886587198,-0.224934041,-0.212871194,-99.18148438,-11.55791374,-34.82343548,-0.021314417,0.013081323861786462,5.856423844465787E-4,-151.75,9.934569886587198,-0.224934041,-0.212871194,-51.00161091,-61.35758083,-8.602829838,-8.75E-05,2.535312595885717E-4,-2.52E-05,Home
134,0,0.1345362365245819,1.1325490474700928,9.93500042,0.007975589,0,160.6999969482422,-86.9155205,40.3848559,-3.19E-04,-8.36E-04,6.69694496589957E-4,-0.996891506,0.012080938,0.009957942,0.077215363,0.021726877,0.022550866387567474,2.9867440705160493,9.933687117493267,-0.224817884,-0.215171091,-99.1845343,-11.53741777,-34.87162544,-0.021326278,0.013116907246989532,6.330868402197596E-4,-134.7777778,9.933687117493267,-0.224817884,-0.215171091,-51.00295307,-61.33696289,-8.651873789,-9.93E-05,2.8911459619107035E-4,2.2239571672330783E-5,Home
135,0,0.1345362365245819,1.1424827575683594,9.93500042,0.003372253,0,160.6999969482422,-86.9155204,40.384856,-0.001996781,-2.52E-04,0.001630708,-0.996890442,0.012115916,0.009984753,0.077220171,0.021785889,0.02261636,2.9867329365998794,9.931056068938913,-0.224864346,-0.21477616,-99.17477402,-11.52350974,-34.80659927,-0.021373723,0.013045741,5.263368343681241E-4,-105.75,9.931056068938913,-0.224864346,-0.21477616,-50.99490097,-61.32354298,-8.587213821,-1.47E-04,2.1794792355119604E-4,-8.45E-05,Home
136,0,0.1345362365245819,1.1524765491485596,9.93500042,0.00804401,0,160.6999969482422,-86.9155202,40.3848559,-0.011572671,6.148551852957716E-5,0.00146109,-0.99689507,0.012229902235773003,0.009919933,0.077150574,0.021672715315396347,0.022855178516321968,2.9868711175270453,9.908451328,-0.226901133,-0.214111611,-99.23882469,-11.56974779,-34.83099915,-0.021385584,0.012950851672410387,2.891145956259474E-4,-130.6666667,9.908451328,-0.226901133,-0.214111611,-51.05870686,-61.36965862,-8.610515909,-1.59E-04,1.230590233072928E-4,-3.22E-04,Home
137,0,0.1345362365245819,1.1624839305877686,9.93500042,0.006158486,0,160.6999969482422,-86.9155202,40.384856,-0.015542919,-0.002701136,-6.84E-04,-0.99689732,0.01243482,0.009880492,0.077093619,0.021624522844275223,0.023271101065775724,2.9869810840458544,9.879224193906321,-0.233149205,-0.214311533,-99.25553802,-11.56913778,-34.77451332,-0.02123139,0.012784796052621407,6.686701570429559E-4,-144.2222222,9.879224193906321,-0.233149205,-0.214311533,-51.07590908,-61.36892677,-8.555005808,4.151389647040118E-5,-8.90E-05,5.782287154183949E-5,Home
138,0,0.20615528523921967,1.1724615097045898,9.93500042,0.006990122,0,160.6999969482422,-86.9155201,40.384856,-0.003407728,-0.001414685,-9.76E-04,-0.99689868,0.012557838057864059,0.009869467,0.077057816,0.021620745833926987,0.023518907,2.9870500911786717,9.875417098258305,-0.233308919,-0.214172146,-99.31080437,-11.59207378,-34.84978722,-0.021373723,0.012867823830869013,6.449479367855249E-4,-148.75,9.875417098258305,-0.233308919,-0.214172146,-51.13141884,-61.39235088,-8.629425802,5.930555912042127E-6,-1.13E-04,3.410066032637525E-5,Home
139,0,0.20615528523921967,1.1824702024459839,9.93500042,0.003948909,0,160.6999969482422,-86.9155201,40.384856,0.003493966,0.001376662,6.572479761919929E-4,-0.996898965,0.012573069006710956,0.0098742,0.077051054,0.021632381,0.023548698360190808,2.987063169,9.883754193,-0.23122972,-0.213219664,-99.24285027,-11.55705976,-34.80647747,-0.021409306,0.013081324,5.737812805342153E-4,-147.2222222,9.883754193,-0.23122972,-0.213219664,-51.0633429,-61.35745888,-8.586115837,-2.97E-05,1.0081945050471616E-4,-3.71E-05,Home
140,0,0.20615528523921967,1.1924275159835815,9.93500042,0.001675695,0,160.6999969482422,-86.9155201,40.384856,0.0023858,6.566051966868914E-4,5.782483002314201E-4,-0.996900687,0.012541713,0.009859742,0.07703576,0.021598323803538315,0.023488737302474104,2.987094982312276,9.887866177605193,-0.231647883,-0.21296412,-99.28811218,-11.5546197,-34.83063332,-0.021532365,0.013050987,4.6988250519811676E-4,-65.75,9.887866177605193,-0.231647883,-0.21296412,-51.10897079,-61.35489662,-8.610271864,-1.53E-04,7.048237603157759E-5,-1.41E-04,Home
141,0,0.11313708126544952,1.0520684719085693,9.93500042,0.064321823,0,160.6999969482422,-86.9155214,40.3848555,0.007158566,0.001720414,1.6070714274656425E-4,-0.996902542,0.012489371,0.009841136,0.077022643,0.021552797497331518,0.023387523,2.9871230542081073,9.898622420227642,-0.229580298,-0.213033814,-99.28311073,-11.5686498,-34.86162136,-0.021456751,0.013093185,5.263368332378783E-4,-144,9.898622420227642,-0.229580298,-0.213033814,-51.10250488,-61.36892677,-8.640771809,-7.71E-05,1.1268056232880041E-4,-8.45E-05,Home
142,0,0.14866068959236145,1.061937689781189,9.93500042,0.04570891,0,160.6999969482422,-86.9155217,40.3848554,0.020277143682090982,0.003187519,8.659798254087133E-4,-0.996908855,0.012258892896973971,0.009780049,0.076985712,0.021394415839927867,0.02293816,2.987204350314094,9.938722480847998,-0.224283565,-0.211337929,-99.26810394,-11.57413965,-34.82599728,-0.021385584,0.013057601665264195,5.737812822295841E-4,-155.375,9.938722480847998,-0.224283565,-0.211337929,-51.08859695,-61.37405079,-8.606977835,-5.93E-06,7.709722685654765E-5,-3.71E-05,Home
143,0,0.11313708126544952,1.0719352960586548,9.93500042,0.021944027,0,160.6999969482422,-86.9155217,40.3848554,0.006919824,9.890039568965874E-4,-2.86E-04,-0.996906951,0.012109552220739787,0.00983263,0.077027294,0.021477116850539317,0.022631362,2.987123461602961,9.950477664910474,-0.224004789,-0.213846908,-99.25712379,-11.52716975,-34.86296322,-0.021480473,0.013223657248885308,5.737812816644612E-4,-154.7777778,9.950477664910474,-0.224004789,-0.213846908,-51.07700703,-61.32683678,-8.643211851,-1.01E-04,2.4315279239372722E-4,-3.71E-05,Home
144,0,0.14866068959236145,1.081925392150879,9.93500042,0.005112507,0,160.6999969482422,-86.9155216,40.3848554,-0.001035496,-1.73E-04,0.001186972,-0.9968987,0.012092602348805052,0.009940702,0.07712283,0.021692208330897453,0.0225788,2.9869297985891694,9.946008552625342,-0.224724958,-0.21459031,-99.24431412,-11.51606773,-34.85991322,-0.021646528,0.013472741,6.923923942540745E-4,-153,9.946008552625342,-0.224724958,-0.21459031,-51.06431896,-61.3158567,-8.639917889,-2.67E-04,4.922361429599882E-4,8.154512344615408E-5,Home
145,0,0.16278821229934692,1.0920028686523438,9.93500042,0.001259713,0,160.6999969482422,-86.9155215,40.3848554,-0.007133123,-6.93E-04,7.899458547240322E-4,-0.996896541,0.012143054344121692,0.009962954,0.07713994,0.021744799,0.022675596,2.9868937140529597,9.933900998,-0.225983693,-0.215285015,-99.29860374,-11.50801579,-34.87284546,-0.021456751,0.013116907,5.737812822295841E-4,-68.44444444,9.933900998,-0.225983693,-0.215285015,-51.11812096,-61.30780499,-8.65297184,-7.71E-05,1.3640278597696893E-4,-3.71E-05,Home
146,0,0.11313708126544952,1.1019227504730225,9.93500042,0.001041814,0,160.6999969482422,-86.9155215,40.3848554,-0.006342749,-6.71E-04,5.331179760034802E-4,-0.996898244,0.012190345765172857,0.009931618,0.077114493,0.021689055252422408,0.022775293445413552,2.9869442611064727,9.923389703324698,-0.226955162,-0.214776159,-99.28957573,-11.50545373,-34.83319538,-0.021433028,0.012986434967193788,7.042535089037734E-4,-72.375,9.923389703324698,-0.226955162,-0.214776159,-51.10945919,-61.30524296,-8.613321924,-5.34E-05,5.930555912042127E-6,9.340624148659047E-5,Home
147,0,0.1345362365245819,1.1119002103805542,9.93500042,6.220096256583929E-4,0,160.6999969482422,-86.9155215,40.3848554,-0.016169854,-0.0022558,-8.63E-04,-0.996899813,0.012364249052570282,0.009901267,0.077070407,0.021654461157842746,0.023127706992684058,2.9870290084949973,9.889701538,-0.231299414,-0.215519561,-99.29958,-11.48520174,-34.79708317,-0.021480473,0.012903407179904215,5.856423917931767E-4,-93.77777778,9.889701538,-0.231299414,-0.215519561,-51.1189748,-61.28560093,-8.576721792,-1.01E-04,-7.71E-05,-2.52E-05,Home
148,0,0.1063014566898346,1.121911883354187,9.93500042,0.004116801,0,160.6999969482422,-86.9155214,40.3848554,-0.005709704,4.4548931052383866E-4,0.001024441,-0.996896358,0.012510744,0.009951864,0.077084936,0.021778423791226832,0.023411688331550766,2.986994977,9.881593620892867,-0.230927714,-0.214334765,-99.25480614,-11.5274137,-34.81099148,-0.021433028,0.013081323888912363,5.737812816644612E-4,-146.25,9.881593620892867,-0.230927714,-0.214334765,-51.07456692,-61.32781281,-8.590995779,-5.34E-05,1.0081945050471616E-4,-3.71E-05,Home
149,0,0.11313708126544952,1.1319011449813843,9.93500042,0.002803604,0,160.6999969482422,-86.9155214,40.3848554,7.441594050480769E-4,1.0627221602659959E-4,-1.92E-06,-0.996900777,0.012485482962802052,0.009889126,0.077040004,0.021648321,0.023371986220948972,2.9870872016136465,9.885589460724766,-0.230950944,-0.213986296,-99.27359421,-11.50655177,-34.87626133,-0.021426642,0.013015746,5.403648812296944E-4,-157.3333333,9.885589460724766,-0.230950944,-0.213986296,-51.09420895,-61.30695076,-8.656143799,-4.70E-05,3.5241188015788794E-5,-7.05E-05,Home
150,0,0.11313708126544952,1.1418800354003906,9.93500042,0.001321773,0,160.6999969482422,-86.9155214,40.3848554,0.002961122,7.768707367980365E-4,9.335100072101482E-5,-0.996903627,0.01249501,0.009837969,0.077008076,0.021547013730968085,0.023399571029161945,2.9871522060875755,9.890723700662262,-0.230556013,-0.21296412,-99.25200005,-11.52180172,-34.87796932,-0.021492334,0.013022018343354891,5.026146129804473E-4,-157.2222222,9.890723700662262,-0.230556013,-0.21296412,-51.07188297,-61.32171303,-8.658461819,-1.13E-04,4.151389138429489E-5,-1.08E-04,Home
151,0,0.11313708126544952,1.1518813371658325,10.097000122070312,0.004058587,0,160.6999969482422,-86.9155213,40.3848554,0.002525617,-6.71E-05,-3.53E-04,-0.996905452,0.012471778056068906,0.009829901,0.076989287,0.021526883636574144,0.023354895412921906,2.9871906794390632,9.894975125210957,-0.231067101,-0.213312589,-99.26749405,-11.54132172,-34.79208141,-0.021504195,0.012938990519897452,6.449479514787209E-4,-155,9.894975125210957,-0.231067101,-0.213312589,-51.08688877,-61.34159897,-8.571719837,-1.25E-04,-4.15E-05,3.410068293129211E-5,Home
152,0,0.11313708126544952,1.1619925498962402,10.12399959564209,0.003579264,0,160.6999969482422,-86.9155213,40.3848554,0.019518769,0.002573981,4.419613521075943E-4,-0.996907596,0.012365395,0.009824036,0.076979351,0.021498489057988797,0.023143882022320646,2.987213419479074,9.929650677060618,-0.226746081,-0.212615651,-99.21930435,-11.53814967,-34.82538719,-0.021421167,0.012974573859890688,6.805312863858508E-4,-133.5555556,9.929650677060618,-0.226746081,-0.212615651,-51.04040676,-61.33818287,-8.606123829,-4.15E-05,-5.93E-06,6.96840189686678E-5,Home
153,0,0.11313708126544952,1.1719391345977783,10.12399959564209,0.001904406,0,160.6999969482422,-86.9155213,40.3848554,0.011500154884116164,3.855347054675945E-4,-0.001742562,-0.996915936,0.012124631463468653,0.009721688,0.076922619,0.021255798637866974,0.022680778436145736,2.9873355870108003,9.953420510658852,-0.2241862,-0.21268512,-99.28713615,-11.51838573,-34.86625732,-0.021516056,0.012974573877974621,8.228646175375263E-4,-70.125,9.953420510658852,-0.2241862,-0.21268512,-51.10628719,-61.31854076,-8.64650589,-1.36E-04,-5.93E-06,2.120173467296058E-4,Home
154,0,0.1063014566898346,1.1819746494293213,10.12399959564209,7.654725923202932E-4,0,160.6999969482422,-86.9155213,40.3848554,0.001327033,9.78223762465912E-4,9.399789918973607E-4,-0.996904352,0.012126465309953805,0.009874385,0.077052626,0.021563615017000912,0.022658067637855567,2.987071259507855,9.951482328396398,-0.225854579,-0.213916601,-99.1902684,-11.53156173,-34.91432522,-0.021302556,0.012879684965298014,4.6703125038229435E-4,-104,9.951482328396398,-0.225854579,-0.213916601,-51.0102729,-61.33147289,-8.694329853,7.709722685654765E-5,-1.01E-04,-1.44E-04,Home
155,0,0.11313708126544952,1.191920518875122,10.12399959564209,0.0040858,0,160.6999969482422,-86.9155212,40.3848554,-0.003277779,-7.52E-04,-0.001526408,-0.996906866,0.012077351905477858,0.009832962,0.077033276,0.021472933295282347,0.022566964,2.987112265188717,9.945137357248843,-0.224823691,-0.215217555,-99.29091827,-11.49996375,-34.86064529,-0.021326278,0.012998296074496889,7.991423927591119E-4,-142.625,9.945137357248843,-0.224823691,-0.215217555,-51.1105571,-61.29975269,-8.640649824,5.337500320837914E-5,1.7791669996618068E-5,1.8829511629996225E-4,Home
156,0,0.11313708126544952,1.1020244359970093,9.93500042,0.08041358,0,160.6999969482422,-86.915523,40.3848551,-0.005195701,-0.001093515,1.5237869568241453E-4,-0.996903818,0.012140103597736474,0.009864946,0.0770589,0.021547023713299373,0.022686612367340663,2.987058572398806,9.933870000746644,-0.226400515,-0.213963065,-99.27469223,-11.50435579,-34.88004318,-0.021326278,0.013093185,7.042535072084046E-4,-135.5555556,9.933870000746644,-0.226400515,-0.213963065,-51.09457485,-61.30402264,-8.659803905,5.337500320837914E-5,1.1268056232880041E-4,9.340623809585294E-5,Home
157,0,0.14866068959236145,1.1119149923324585,9.93500042,0.057518836,0,160.6999969482422,-86.9155234,40.384855,0.001027401,-5.12E-04,0.001111274,-0.99690327,0.012134027559883319,0.009860408,0.07706751,0.021537228075500865,0.02267501,2.9870415467482347,9.938191089815307,-0.225932985,-0.212987351,-99.2554158,-11.53204977,-34.90785923,-0.02147363,0.013109722103063878,6.225943137766221E-4,-96.375,9.938191089815307,-0.225932985,-0.212987351,-51.07529907,-61.3322047,-8.688595839,-9.40E-05,1.2921768939122558E-4,1.1747040284367708E-5,Home
158,0,0.11313708126544952,1.1220065355300903,9.93500042,0.027535313740372658,0,160.6999969482422,-86.9155234,40.384855,-4.68E-05,-2.24E-04,-0.00142301,-0.996905077,0.012147180853610478,0.009823142,0.077046842,0.021464465981692944,0.022707439,2.9870835207041027,9.938496043381182,-0.225863292,-0.214752928,-99.26810448,-11.52619375,-34.85796131,-0.021278834,0.012938990537981384,6.686701739966435E-4,-137.5555556,9.938496043381182,-0.225863292,-0.214752928,-51.08798695,-61.32622688,-8.638941851,1.0081945050471616E-4,-4.15E-05,5.782290488409186E-5,Home
159,0,0.11313708126544952,1.131967544555664,9.93500042,0.006638573,0,160.6999969482422,-86.9155233,40.384855,-7.50E-04,-2.53E-04,6.20850370925607E-5,-0.996902105,0.012117969,0.009871504,0.07708375,0.021557236650904404,0.022640926,2.9870091225337054,9.936924980682077,-0.225212816,-0.214172146,-99.28884407,-11.51911778,-34.83624542,-0.021243251,0.013093185,7.398368443760261E-4,-158,9.936924980682077,-0.225212816,-0.214172146,-51.10945889,-61.31915092,-8.61624979,1.3640278597696893E-4,1.1268056232880041E-4,1.2898957865421198E-4,Home
160,0,0.11313708126544952,1.1419001817703247,9.93500042,7.085402612574399E-4,0,160.6999969482422,-86.9155232,40.384855,-0.001551221,-1.14E-04,1.3024772255166063E-5,-0.996902751,0.012120495224823651,0.00986165,0.077076218,0.021537803294299877,0.022647647566876365,2.9870244021554595,9.934174926535597,-0.22509666,-0.213986296,-99.28701424,-11.5261937,-34.91786327,-0.021314417,0.012986434940067888,7.279757331170648E-4,-156.2222222,9.934174926535597,-0.22509666,-0.213986296,-51.10628689,-61.32622707,-8.697623787,6.52361150324634E-5,5.930555912042127E-6,1.1712846739525066E-4,Home
161,0,0.11313708126544952,1.151900291442871,9.93500042,9.323045378550887E-4,0,160.6999969482422,-86.9155232,40.384855,-0.006287214,-0.002052165,-9.73E-04,-0.996902024,0.012083308816462466,0.009859712,0.077091753,0.021528526887442303,0.022573462,2.986994201697192,9.92559223,-0.226236779,-0.214801848,-99.31178017,-11.50557575,-34.86223133,-0.02112464,0.012808518267227608,8.110035136251629E-4,-144.375,9.92559223,-0.226236779,-0.214801848,-51.13190681,-61.30573071,-8.642601805,2.5501390421781147E-4,-1.72E-04,2.001562495987175E-4,Home
162,0,0.11313708126544952,1.1619192361831665,9.93500042,0.004510697,0,160.6999969482422,-86.9155231,40.384855,-0.019250361,-0.002962976,-7.69E-04,-0.996901422,0.012274088,0.009844175,0.07707131,0.02152664,0.022956721593164704,2.9870307677000474,9.886240005493164,-0.230439856,-0.213963065,-99.34142639,-11.51716576,-34.86430523,-0.02123139,0.012938990537981384,7.516979573303562E-4,-147.8888889,9.886240005493164,-0.230439856,-0.213963065,-51.16155296,-61.31744263,-8.643699827,1.482638978010532E-4,-4.15E-05,1.4085069330391084E-4,Home
163,0,0.11313708126544952,1.171905755996704,9.93500042,0.00593476,0,160.6999969482422,-86.9155231,40.3848551,-0.005962251,-0.00180975,-6.31E-04,-0.996900313,0.012504651627132615,0.009847278,0.077048254,0.021568016646411812,0.023416490664759888,2.9870711576591416,9.877203006188847,-0.233044664,-0.213893371,-99.27786407,-11.56303771,-34.81904327,-0.021266973,0.012903407161820282,5.737812822295841E-4,-94.66666667,9.877203006188847,-0.233044664,-0.213893371,-51.09738079,-61.36294872,-8.5989258,1.1268056232880041E-4,-7.71E-05,-3.71E-05,Home
164,0,0.11313708126544952,1.1819568872451782,9.93500042,0.002037226,0,160.6999969482422,-86.9155231,40.384855,0.002329132,5.243811213854448E-4,-3.19E-04,-0.996899986,0.01255634,0.009854309,0.077043142,0.021589928966702768,0.023518583,2.9870799212779815,9.883777442487698,-0.231880195,-0.213614595,-99.29457817,-11.52314372,-34.8213615,-0.021266973,0.012796657,6.80531284690482E-4,-57.125,9.883777442487698,-0.231880195,-0.213614595,-51.11372887,-61.32329891,-8.60124382,1.1268056232880041E-4,-1.84E-04,6.968401557793027E-5,Home
165,0,0.11313708126544952,1.191921353340149,9.93500042,0.004633341,0,160.6999969482422,-86.9155232,40.3848551,0.002049565,-1.24E-04,-4.73E-04,-0.996905513,0.012483629935349409,0.009791675,0.076991434,0.021452526,0.02338438,2.9871869614491096,9.887494494614092,-0.231276182,-0.212522725,-99.29653015,-11.56218372,-34.82929111,-0.021438389,0.012921769127178077,7.75306130190774E-4,-115.6666667,9.887494494614092,-0.231276182,-0.212522725,-51.11641281,-61.36246094,-8.608929853,-5.87E-05,-5.87E-05,1.6445886565354437E-4,Home
166,0,0.11313708126544952,1.201861023902893,12.239999771118164,0.003021492,0,160.6999969482422,-86.9155231,40.384855,0.004084282,-3.32E-04,-0.001256458,-0.996910684,0.012436803,0.009730268,0.076939798,0.021321589723952764,0.023301581,2.987293134615259,9.893883214413542,-0.230741863,-0.212127793,-99.29933601,-11.53119576,-34.85576542,-0.021302556,0.012678045987431864,7.042535111642651E-4,-80.125,9.893883214413542,-0.230741863,-0.212127793,-51.11958485,-61.33122879,-8.635891867,7.709722685654765E-5,-3.02E-04,9.340624600757384E-5,Home
167,0,0.11313708126544952,1.2120310068130493,12.62399959564209,0.005887846,0,160.6999969482422,-86.915523,40.3848551,0.021394192593768964,0.001274654,-8.91E-04,-0.99691,0.012335262722471386,0.009751398,0.076962346,0.021348546955336646,0.023095365,2.9872499646492376,9.934366578037299,-0.22762887,-0.212522725,-99.26114983,-11.47422179,-34.8330732,-0.021468612,0.012962712734503654,6.56809063867928E-4,-112.6666667,9.934366578037299,-0.22762887,-0.212522725,-51.08078903,-61.27437675,-8.613565817,-8.90E-05,-1.78E-05,4.5961796450745134E-5,Home
168,0,0.11313708126544952,1.2219229936599731,12.62399959564209,0.004224445,0,160.6999969482422,-86.915523,40.3848551,0.009736015,0.00153803,-0.001222921,-0.996909908,0.012138329346854132,0.009772053,0.076992182,0.021359951515654917,0.022698847,2.9871945404311986,9.952051551596632,-0.224097714,-0.213591364,-99.27225258,-11.48239579,-34.83478123,-0.021314417,0.012867823857994913,6.805312869509737E-4,-114.25,9.952051551596632,-0.224097714,-0.213591364,-51.09274471,-61.28267284,-8.614663868,6.52361150324634E-5,-1.13E-04,6.968402009891364E-5,Home
169,0,0.11313708126544952,1.2319291830062866,12.239999771118164,0.006832699,0,160.6999969482422,-86.9155229,40.384855,-1.53E-04,-5.97E-05,-0.001659351,-0.996911684,0.012053917234456077,0.009755798,0.076984514,0.021314291500495474,0.022533197408017604,2.987212408,9.949483312093294,-0.224189076,-0.213697468,-99.22455002,-11.51533567,-34.79208111,-0.021255112,0.012749212694544237,7.872812888467485E-4,-86.55555556,9.949483312093294,-0.224189076,-0.213697468,-51.0441888,-61.31512489,-8.572329817,1.2454167415288468E-4,-2.31E-04,1.7643402255981147E-4,Home
170,0,0.11313708126544952,1.2419248819351196,12.62399959564209,0.004569405,0,160.6999969482422,-86.9155229,40.384855,-0.002064612,-9.33E-04,-0.001703373,-0.9969079,0.012040259018178704,0.009810083,0.077028778,0.021421449,0.022496636,2.9871227116260712,9.944501395,-0.224748191,-0.214892316,-99.25761246,-11.49825577,-34.81160126,-0.021350001,0.012962712734503654,6.686701745617664E-4,-141.25,9.944501395,-0.224748191,-0.214892316,-51.0781049,-61.29828876,-8.591727877,2.9652779560210635E-5,-1.78E-05,5.782290657946062E-5,Home
171,0,0.11313708126544952,1.101668119430542,9.93500042,0.084117502,0,160.6999969482422,-86.9155247,40.3848552,-0.002025595,-0.001069128,-5.29E-04,-0.996902447,0.012072257923631414,0.009883393,0.07708495,0.021573891483464287,0.022547915161958018,2.9870075948030044,9.941420295863475,-0.225073428,-0.215078167,-99.28494011,-11.50923573,-34.8372213,-0.021183945,0.012855962723565912,7.75420179283156E-4,-121,9.941420295863475,-0.225073428,-0.215078167,-51.10482296,-61.3091468,-8.61734787,1.957083450973902E-4,-1.25E-04,1.6457291469158767E-4,Home
172,0,0.11313708126544952,1.1116262674331665,9.93500042,0.056102183,0,160.6999969482422,-86.9155251,40.3848553,-0.001726049,-5.64E-04,-7.13E-04,-0.996901948,0.012103498696340519,0.009887496,0.077085984,0.021586941193463733,0.022609552694032493,2.9870046504492898,9.938295660667048,-0.225305741,-0.215240786,-99.31849052,-11.4642177,-34.89944138,-0.021290695,0.013010157227009824,7.39836845506272E-4,-94,9.938295660667048,-0.225305741,-0.215240786,-51.1377631,-61.26437275,-8.67846983,8.89583386806319E-5,2.9652779560210635E-5,1.2898958091470366E-4,Home
173,0,0.11313708126544952,1.1216017007827759,9.93500042,0.026172220706939697,0,160.6999969482422,-86.9155251,40.3848553,-0.001650214,-9.82E-04,-5.74E-04,-0.99690095,0.012122330175211223,0.009899697,0.077094365,0.021614385535940528,0.022645037836180285,2.986987081857828,9.935966695396646,-0.226049142,-0.215333711,-99.23687241,-11.51277373,-34.85247135,-0.021250436,0.012992251449479507,6.460884413592374E-4,-117.8888889,9.935966695396646,-0.226049142,-0.215333711,-51.05663292,-61.31280682,-8.632109852,1.2921768939122558E-4,1.1747062671929598E-5,3.5241171225117374E-5,Home
174,0,0.11313708126544952,1.1315644979476929,9.93500042,0.009535611,0,160.6999969482422,-86.9155251,40.3848553,-2.78E-04,-2.44E-04,3.5347955898173803E-4,-0.996902818,0.012163814428506546,0.009869763,0.077067531,0.021560501,0.022732963,2.9870405498060206,9.935374334020523,-0.226072373,-0.213870139,-99.27957253,-11.52838975,-34.85844921,-0.021361862,0.013010157199883923,6.923923993401808E-4,-107.875,9.935374334020523,-0.226072373,-0.213870139,-51.10067486,-61.3279348,-8.637721834,1.779166773612638E-5,2.9652779560210635E-5,8.154513361836666E-5,Home
175,0,0.11313708126544952,1.1416573524475098,9.93500042,0.002522334,0,160.6999969482422,-86.915525,40.3848553,-0.003479356,-6.16E-04,-1.58E-04,-0.996900652,0.012183613,0.009898189,0.077088776,0.02162075,0.022767590467356942,2.98699679,9.930289416637235,-0.226746081,-0.214938779,-99.2571244,-11.5333917,-34.88919319,-0.021326278,0.012962712797797421,6.686701751268893E-4,-146,9.930289416637235,-0.226746081,-0.214938779,-51.07639698,-61.33366879,-8.669441881,5.337500320837914E-5,-1.78E-05,5.782290770970647E-5,Home
176,0,0.11313708126544952,1.1515130996704102,9.93500042,0.003600504,0,160.6999969482422,-86.9155249,40.3848553,-0.00541237,-5.96E-04,-5.53E-04,-0.996902817,0.012198539486932523,0.009866494,0.077062441,0.021559244112193007,0.022802820121779026,2.987049959238293,9.920041436,-0.226885468,-0.214543846,-99.33203201,-11.50618572,-34.80110928,-0.021302556,0.012903407207030116,7.398368426806574E-4,-156.375,9.920041436,-0.226885468,-0.214543846,-51.15179291,-61.30634079,-8.581479788,7.709722685654765E-5,-7.71E-05,1.2898957526347445E-4,Home
177,0,0.11313708126544952,1.1615893840789795,9.93500042,0.002928701,0,160.6999969482422,-86.9155249,40.3848553,-0.017019596,-0.002344535,-5.64E-04,-0.996900543,0.012375804053131238,0.009881359,0.077061612,0.021616341003659858,0.023154013166294514,2.9870468065576645,9.886982083320618,-0.231712662,-0.214709817,-99.28311028,-11.51326169,-34.93274719,-0.021433028,0.012950851654326453,5.500590574511698E-4,-153.4444444,9.886982083320618,-0.231712662,-0.214709817,-51.10323681,-61.31353897,-8.712263861,-5.34E-05,-2.97E-05,-6.08E-05,Home
178,0,0.11313708126544952,1.1715196371078491,9.93500042,0.005352589,0,160.6999969482422,-86.9155248,40.3848553,-0.005824422,-7.61E-04,1.0562579608657986E-4,-0.996896659,0.012577163082665032,0.009916089,0.077074879,0.021717127340221867,0.023549876528457532,2.987014291355911,9.877923132146446,-0.233436692,-0.214450922,-99.26163765,-11.55230174,-34.81221146,-0.021326278,0.013116907,5.856423934885454E-4,-158.2222222,9.877923132146446,-0.233436692,-0.214450922,-51.08091106,-61.35233501,-8.591971827,5.337500320837914E-5,1.3640278597696893E-4,-2.52E-05,Home
179,0,0.14866068959236145,1.1815814971923828,9.93500042,0.007137097,0,160.6999969482422,-86.9155247,40.3848553,0.001578664,0.001003771,5.08910677965405E-4,-0.996898231,0.012549002871857685,0.009896865,0.07706158,0.021674106,0.023496983,2.987042135405309,9.882778445493829,-0.231067101,-0.213823676,-99.2479744,-11.54876374,-34.88772934,-0.021302556,0.012986435003361656,6.212257283956753E-4,-145.125,9.882778445493829,-0.231067101,-0.213823676,-51.06834503,-61.34818668,-8.669075871,7.709722685654765E-5,5.930555912042127E-6,1.0378459283123607E-5,Home
180,0,0.11313708126544952,1.1915374994277954,9.93500042,0.004185614,0,160.6999969482422,-86.9155247,40.3848553,0.002739666,-2.69E-04,-5.76E-04,-0.996900819,0.012538642495942926,0.009861681,0.077034294,0.021601681479985275,0.023482348191217313,2.9870979438707668,9.888121771580964,-0.232251896,-0.213916602,-99.33459442,-11.54742179,-34.8045253,-0.021456751,0.013022018334312924,5.856423934885454E-4,-118.3333333,9.888121771580964,-0.232251896,-0.213916602,-51.15496494,-61.34769852,-8.584285831,-7.71E-05,4.151389138429489E-5,-2.52E-05,Home
181,0,0.11313708126544952,1.2015248537063599,12.85200023651123,0.005492399,0,160.6999969482422,-86.9155246,40.3848553,0.004039255,2.6052307735369043E-4,9.33404541710048E-4,-0.996899898,0.012536957353642844,0.009874777,0.077044846,0.021627789706859774,0.023476737361509823,2.9870765070313388,9.893976091181191,-0.231926658,-0.213080276,-99.25956451,-11.50142777,-34.85100727,-0.021444889,0.013069462763525328,6.805312852556049E-4,-145.875,9.893976091181191,-0.231926658,-0.213080276,-51.07956898,-61.30182671,-8.631499825,-6.52E-05,8.89583386806319E-5,6.968401840354487E-5,Home
182,0,0.11313708126544952,1.2116378545761108,12.85200023651123,0.007307943,0,160.6999969482422,-86.9155245,40.3848553,0.021222225,0.002070513,-3.11E-04,-0.996908272,0.012319231387944175,0.009778637,0.076983785,0.021400898,0.023058735067024827,2.9872067203888526,9.93630063,-0.226560231,-0.212453032,-99.26322449,-11.4971578,-34.91139729,-0.021379653,0.012863033791430868,7.283178800627446E-4,-144.5555556,9.93630063,-0.226560231,-0.212453032,-51.08249691,-61.2971909,-8.690059805,0,-1.17E-04,1.1747061384644789E-4,Home
183,0,0.16278821229934692,1.2215960025787354,12.85200023651123,0.004323761,0,160.6999969482422,-86.9155245,40.3848553,0.008148425,0.001440195,-7.88E-04,-0.996909562,0.012133021,0.009778214,0.076996743,0.021371520241921387,0.022687212,2.987185399509171,9.950187284969589,-0.224074483,-0.213266127,-99.27066605,-11.53131775,-34.89907532,-0.021456751,0.012986434976235755,6.805312863858508E-4,-61,9.950187284969589,-0.224074483,-0.213266127,-51.08969505,-61.33171684,-8.679567852,-7.71E-05,5.930555912042127E-6,6.96840189686678E-5,Home
184,0,0.11313708126544952,1.2316255569458008,12.85200023651123,0.005710436,0,160.6999969482422,-86.9155244,40.3848553,-7.09E-04,-3.44E-04,-2.55E-04,-0.996908121,0.012057557,0.00980543,0.077023832,0.021414736050714568,0.022531955,2.9871323108673096,9.946098475780301,-0.224422952,-0.213266127,-99.26517632,-11.56901573,-34.85295929,-0.021409306,0.012998296,6.923923970796891E-4,-77.11111111,9.946098475780301,-0.224422952,-0.213266127,-51.08469284,-61.36892685,-8.633207855,-2.97E-05,1.779166773612638E-5,8.154512909738329E-5,Home
185,0,0.11313708126544952,1.2416242361068726,12.85200023651123,0.007183998,0,160.6999969482422,-86.9155243,40.3848553,-0.003175726,-0.001270256,-0.00187681,-0.996904294,0.012066806,0.009858051,0.077065131,0.021522057,0.022541382919671466,2.987048058833891,9.939521187717475,-0.225352204,-0.21586803,-99.29238228,-11.51875177,-34.88724136,-0.021172084,0.012891546099727015,7.398368443760261E-4,-43.55555556,9.939521187717475,-0.225352204,-0.21586803,-51.11214306,-61.31915085,-8.667611876,2.0756945692147446E-4,-8.90E-05,1.2898957865421198E-4,Home
186,0,0.11313708126544952,1.2515864372253418,9.93500042,0.004161991,0,160.6999969482422,-86.9155243,40.3848553,-0.001460853,-4.15E-04,0.001031434,-0.996905326,0.012111905265997336,0.009839485,0.077047102,0.021491603,0.02263457,2.9870835114451286,9.935954515750591,-0.225454511,-0.212547074,-99.30299652,-11.51326176,-34.90712742,-0.021302556,0.012950851645284487,7.516979545047416E-4,-68.75,9.935954515750591,-0.225454511,-0.212547074,-51.12324512,-61.31292877,-8.687131834,7.709722685654765E-5,-2.97E-05,1.4085068765268163E-4,Home
187,0,0.11313708126544952,1.110505462,9.93500042,0.056092087,0,160.6999969482422,-86.915525,40.3848545,-3.26E-05,-4.49E-04,-7.60E-04,-0.996909401,0.012099782429924868,0.009783573,0.077003386,0.021377217187320146,0.022619964572989825,2.9871727795276826,9.937305441180479,-0.225154736,-0.213242895,-99.26676239,-11.5422978,-34.84893318,-0.021255112,0.012796657,7.042535055130359E-4,-119.4444444,9.937305441180479,-0.225154736,-0.213242895,-51.08640102,-61.34220886,-8.628693905,1.2454167415288468E-4,-1.84E-04,9.34062347051154E-5,Home
188,0,0.11313708126544952,1.1206196546554565,9.93500042,0.039682828,0,160.6999969482422,-86.9155252,40.3848544,-6.30E-04,-0.001238518,-0.001816795,-0.996911419,0.012074770107503656,0.009757627,0.076984483,0.021321167,0.022574496988966627,2.9872118986926033,9.936082886,-0.225352204,-0.213777215,-99.29226059,-11.54095573,-34.85625328,-0.021278834,0.012891546072601115,7.754201764575414E-4,-150.5,9.936082886,-0.225352204,-0.213777215,-51.11263088,-61.3406229,-8.63625783,1.0081945050471616E-4,-8.90E-05,1.6457290904035846E-4,Home
189,0,0.15620499849319458,1.1305863857269287,9.93500042,0.019083319,0,160.6999969482422,-86.9155253,40.3848543,-0.001729345,-9.17E-04,-5.83E-04,-0.996902745,0.012095546105749977,0.009877106,0.077078269,0.021564811431956522,0.022595467498001544,2.9870205481075547,9.934805055266445,-0.225192488,-0.214938779,-99.24711998,-11.57267575,-34.86955116,-0.021373723,0.013069462772567295,8.465868490974156E-4,-79.22222222,9.934805055266445,-0.225192488,-0.214938779,-51.06712486,-61.37234287,-8.649921865,5.930555912042127E-6,8.89583386806319E-5,2.3573958676633905E-4,Home
190,0,0.11313708126544952,1.1406291723251343,9.93500042,0.007097144,0,160.6999969482422,-86.9155252,40.3848544,1.5918108133169322E-4,-8.78E-05,7.360239441578204E-4,-0.99690108,0.012112572914562546,0.009898757,0.077094312,0.021610999014228582,0.022625727,2.986987453240615,9.932969732191957,-0.225050197,-0.213730752,-99.21295967,-11.54595771,-34.83209717,-0.02147363,0.013156710407481743,6.108472522240705E-4,-120.75,9.932969732191957,-0.225050197,-0.213730752,-51.03174503,-61.34623482,-8.61271183,-9.40E-05,1.7620594007894397E-4,-2.07E-11,Home
191,0,0.15620499849319458,1.1504888534545898,9.93500042,0.003074987,0,160.6999969482422,-86.9155251,40.3848544,-0.004043829,2.656573230780444E-5,4.6636656071375875E-4,-0.99690347,0.012119723,0.009864705,0.077066651,0.021543561,0.022645842,2.987043538139862,9.927408690591461,-0.224841115,-0.213498439,-99.25053635,-11.56462372,-34.88638721,-0.021243251,0.012974573887016588,6.923923970796891E-4,-135.6666667,9.927408690591461,-0.224841115,-0.213498439,-51.070541,-61.36404686,-8.66602582,1.3640278597696893E-4,-5.93E-06,8.154512909738329E-5,Home
192,0,0.20615528523921967,1.1604801416397095,9.93500042,0.002565533,0,160.6999969482422,-86.9155251,40.3848544,-0.020286597,-0.003624287,-2.85E-04,-0.996910773,0.012356509,0.009739704,0.076950114,0.021328211,0.023139779790512568,2.987274246,9.887985312822954,-0.232916891,-0.211616704,-99.31446426,-11.58951177,-34.82428913,-0.021492334,0.012393379403115476,-4.30E-05,-69,9.887985312822954,-0.232916891,-0.211616704,-51.13434696,-61.38942287,-8.604049835,-1.13E-04,-5.87E-04,-6.54E-04,Home
193,0,0.16278821229934692,1.1705057621002197,9.93500042,0.001384105,0,160.6999969482422,-86.9155251,40.3848544,-0.006907796,-8.69E-04,-0.001305993,-0.996923541,0.012772135346115213,0.009518662,0.076744466,0.020946704484160663,0.024006979178311755,2.9876816596799682,9.876738409,-0.23817297,-0.208341094,-99.34899002,-11.69955578,-34.79561928,-0.021255112,0.012784796,7.39836838159674E-4,-68.11111111,9.876738409,-0.23817297,-0.208341094,-51.16887302,-61.49934471,-8.575379829,1.2454167415288468E-4,-1.96E-04,1.289895684819994E-4,Home
194,0,0.16278821229934692,1.1804683208465576,9.93500042,0.004420146,0,160.6999969482422,-86.915525,40.3848544,0.00157735,7.701336758808025E-4,-9.20E-04,-0.996926707,0.012773116010702351,0.009473871,0.076708726,0.020856654832085358,0.024016570715794286,2.9877543958645423,9.881644221452566,-0.236581712,-0.207002168,-99.33130035,-11.66807975,-34.89443913,-0.021350001,0.012761073810889305,6.330868407848824E-4,-76.5,9.881644221452566,-0.236581712,-0.207002168,-51.15191471,-61.46847862,-8.674321861,2.9652779560210635E-5,-2.19E-04,2.2239572802576626E-5,Home
195,0,0.14866068959236145,1.1904834508895874,9.93500042,0.002893486,0,160.6999969482422,-86.915525,40.3848544,0.002770128,-8.17E-04,-2.26E-04,-0.996927714,0.012755129341650935,0.009461554,0.07670019,0.020829108661239586,0.023982775,2.9877722795727184,9.887262205475743,-0.237618325,-0.206064428,-99.26176025,-11.69296778,-34.89700115,-0.021278834,0.012974573877974621,7.161146190324889E-4,-96.22222222,9.887262205475743,-0.237618325,-0.206064428,-51.082253,-61.49312256,-8.67627389,1.0081945050471616E-4,-5.93E-06,1.0526734991993719E-4,Home
196,0,0.15556348860263824,1.2005119323730469,9.93500042,0.001332714,0,160.6999969482422,-86.915525,40.3848544,0.005089778,9.312020632827166E-4,-0.001777246,-0.996901523,0.012541013362916928,0.00981461,0.077030521,0.021508064555022324,0.023494396810826747,2.9871065801787147,9.895329308741301,-0.231485264,-0.214752929,-99.24333824,-11.62464776,-34.81733543,-0.021219528,0.013449018364500942,9.414757425598439E-4,-114.3333333,9.895329308741301,-0.231485264,-0.214752929,-51.06297699,-61.42492451,-8.597461834,1.6012500962513744E-4,4.6851391705132804E-4,3.3062844914700655E-4,Home
197,0,0.22671568393707275,1.2104719877243042,9.93500042,0.006654592,0,160.6999969482422,-86.9155249,40.3848543,0.020828534098504818,0.00181498,-1.51E-04,-0.996900947,0.012317827486803809,0.009855015,0.077068901,0.021554982,0.023042307,2.987034239815277,9.936050840951864,-0.226873852,-0.213475208,-99.18270447,-11.58487575,-34.85564342,-0.021172084,0.012891546117810949,8.228646113211741E-4,-148.375,9.936050840951864,-0.226873852,-0.213475208,-51.0024649,-61.3850309,-8.636135845,2.0756945692147446E-4,-8.90E-05,2.1201733655739323E-4,Home
198,0,0.22671568393707275,1.2205122709274292,9.93500042,0.004548991,0,160.6999969482422,-86.9155249,40.3848543,0.008747156,0.001745207,-0.001398321,-0.996904285,0.012094460409851028,0.009831087,0.077064334,0.021472539161690153,0.022600708,2.9870495681579294,9.951380813,-0.222686412,-0.21514786,-99.28677002,-11.54363976,-34.83075512,-0.021285677,0.012898274983924169,6.578354961955204E-4,-147.8888889,9.951380813,-0.222686412,-0.21514786,-51.1057988,-61.34367287,-8.610881853,9.397650137543678E-5,-8.22E-05,4.698822046450984E-5,Home
199,0,0.16278821229934692,1.2305241823196411,9.93500042,0.005428799,0,160.6999969482422,-86.9155248,40.3848543,-2.52E-04,2.2029153351644867E-4,-0.001184442,-0.996899839,0.012053262831154958,0.009898474,0.077119696,0.021601814631987543,0.022506956137644436,2.9869380275022634,9.947550468074466,-0.2236418,-0.216077112,-99.22308716,-11.59988173,-34.85308163,-0.021290695,0.012950852,6.212257250049378E-4,-115.75,9.947550468074466,-0.2236418,-0.216077112,-51.04321274,-61.3995488,-8.631987848,8.89583386806319E-5,-2.97E-05,1.0378451936525627E-5,Home
200,0,0.16278821229934692,1.2405894994735718,9.93500042,0.003229629,0,160.6999969482422,-86.9155248,40.3848543,-0.005950983,-0.001423875,-9.33E-04,-0.996906179,0.012084858,0.009804572,0.077044734,0.021417718507277157,0.022586070760650542,2.987089735790364,9.938124341872133,-0.225993968,-0.213916602,-99.19758812,-11.55400976,-34.88992538,-0.021373723,0.012583157192300824,3.958646009124598E-4,-63.55555556,9.938124341872133,-0.225993968,-0.213916602,-51.01783676,-61.35379871,-8.669807854,5.930555912042127E-6,-3.97E-04,-2.15E-04,Home
201,0,0.16278821229934692,1.250424861907959,9.93500042,0.005297754,0,160.6999969482422,-86.9155247,40.3848543,-0.010407114,-0.002350466,-2.46E-04,-0.996912268,0.012381109155859183,0.009696176,0.076932518,0.021244805523203413,0.023195935,2.9873099327087402,9.915708903,-0.232655539,-0.211128847,-99.2735939,-11.62806376,-34.83917297,-0.021361862,0.012962713,5.737812697968798E-4,-48.25,9.915708903,-0.232655539,-0.211128847,-51.09359901,-61.42821869,-8.619055862,1.779166773612638E-5,-1.78E-05,-3.71E-05,Home
202,0,0.16278821229934692,1.110417127609253,9.93500042,0.058930668979883194,0,160.6999969482422,-86.915526,40.3848545,0.005448554,5.629321614515435E-4,-0.001385408,-0.996902508,0.012269961,0.009845132,0.077057691,0.021527594100069075,0.02294863,2.987058181207157,9.928707013,-0.226906885,-0.214962903,-99.24797424,-11.5918298,-34.85674133,-0.021219529,0.013235518329062508,0.001060087,-111,9.928707013,-0.226906885,-0.214962903,-51.06761295,-61.39174068,-8.636013794,1.6012500962513744E-4,2.550139132597782E-4,4.4923956908321787E-4,Home
203,0,0.16278821229934692,1.1203839778900146,9.93500042,0.042299632,0,160.6999969482422,-86.9155264,40.3848545,0.005518765,0.00264781,0.001852536,-0.996901435,0.012042312,0.009890162,0.07710177,0.021583133,0.022486788,2.9869744546205093,9.938731202801455,-0.221042799,-0.212662113,-99.19661232,-11.56389173,-34.85015312,-0.021006028,0.012998296119706723,0.001000781,-112.7777778,9.938731202801455,-0.221042799,-0.212662113,-51.01686077,-61.36416889,-8.630401878,2.3722223874217676E-4,1.7791665475634694E-5,2.535312618490634E-4,Home
204,0,0.12041594833135605,1.1305088996887207,9.93500042,0.016205266,0,160.6999969482422,-86.9155263,40.3848544,-0.001591877,-0.003033959,-0.001402217,-0.99689781,0.011997108908315885,0.009943605,0.077148865,0.021683778487218235,0.022387374,2.9868798996638324,9.935063547301061,-0.224951464,-0.216541737,-99.2426062,-11.52924372,-34.84393105,-0.021397445,0.013140629461595735,7.042534976013149E-4,-75,9.935063547301061,-0.224951464,-0.216541737,-51.06273277,-61.32915489,-8.623935833,-1.71E-04,1.6012500962513744E-4,-5.93E-05,Home
205,0,0.16278821229934692,1.140318512916565,9.939000129699707,0.005372978,0,160.6999969482422,-86.9155262,40.3848544,-2.41E-04,2.3673865401629106E-4,-1.12E-04,-0.996891413,0.012043595512949147,0.010028609400162997,0.077213195,0.021861978707093638,0.022465519751738577,2.9867477787351144,9.934453695723153,-0.223331082,-0.217517451,-99.26261406,-11.53631977,-34.85308125,-0.021314417,0.012950851627200553,7.991423876730056E-4,-119,9.934453695723153,-0.223331082,-0.217517451,-51.08213089,-61.33598682,-8.633085842,-8.75E-05,-2.97E-05,3.558333547225276E-5,Home
206,0,0.16278821229934692,1.1502785682678223,9.958999633789062,0.003296284,0,160.6999969482422,-86.9155261,40.3848544,-0.011116165,8.485487733895963E-4,0.002685896,-0.996899577,0.012157111,0.009914705,0.077104472,0.021649922,0.022711833007633686,2.9869656218932223,9.915952793602804,-0.224742382,-0.212267181,-99.27017845,-11.60036973,-34.8349033,-0.021485377,0.012545863103766281,1.997000503111989E-4,-57.75,9.915952793602804,-0.224742382,-0.212267181,-51.09115871,-61.40052486,-8.614175835,-2.58E-04,-4.35E-04,-5.64E-04,Home
207,0,0.22671568393707275,1.1603243350982666,9.970999717712402,0.002967703,0,160.6999969482422,-86.9155261,40.3848544,-0.015753024,-0.005179825,-0.003067516,-0.996906176,0.012558994742417798,0.009788888,0.076970748,0.021458154,0.023535528482453338,2.9872266227759203,9.883789127312818,-0.238231048,-0.215496329,-99.26285812,-11.65734374,-34.82941334,-0.02123139,0.012844101580094944,5.144757044601064E-4,-83.22222222,9.883789127312818,-0.238231048,-0.215496329,-51.08237492,-61.4574987,-8.60978385,-4.45E-06,-1.36E-04,-2.49E-04,Home
208,0,0.23430748283863068,1.1702998876571655,10,0.00541012,0,160.6999969482422,-86.915526,40.3848544,-0.002785979,0.002533159,0.002147797,-0.996906203,0.012699193194580889,0.009793648,0.076946921,0.021488770318118113,0.023814873878382943,2.987270790396385,9.880850347500402,-0.232867523,-0.210246058,-99.29628609,-11.64099576,-34.82977932,-0.021314417,0.012950852,6.923923857772307E-4,-103.25,9.880850347500402,-0.232867523,-0.210246058,-51.11690083,-61.44127296,-8.609783802,-8.75E-05,-2.97E-05,-7.12E-05,Home
209,0,0.24839484691619873,1.1803523302078247,10.04800033569336,0.00606179,0,160.6999969482422,-86.915526,40.3848543,0.001150918,-0.001905288,-0.001968536,-0.996906287,0.012682374114695104,0.009796401,0.076948147,0.021491693,0.023780880333150473,2.9872686816650686,9.883353585178412,-0.236959136,-0.214357996,-99.23431,-11.65173179,-34.84319935,-0.021207667,0.013081323843702529,8.22864611886297E-4,-81.66666667,9.883353585178412,-0.236959136,-0.214357996,-51.0544368,-61.45152065,-8.623203802,1.9274315190980736E-5,1.0081945276520785E-4,5.930555912042127E-5,Home
210,0,0.24839484691619873,1.190385103225708,10.119999885559082,0.003873475,0,160.6999969482422,-86.915526,40.3848543,0.001000793,2.315063210366999E-4,0.001052603,-0.996904798,0.012584124429567346,0.009830199,0.076979263,0.021544637357436336,0.02357908,2.9872079451107285,9.887005090713501,-0.232822794,-0.211718788,-99.23931198,-11.67186175,-34.88541122,-0.02155164,0.012772934972444206,7.042534976013149E-4,-155,9.887005090713501,-0.232822794,-0.211718788,-51.05956097,-61.47152874,-8.665293856,-3.25E-04,-2.08E-04,-5.93E-05,Home
211,0,0.16278821229934692,1.2002938985824585,10.157999992370605,0.0046807,0,160.6999969482422,-86.9155259,40.3848543,0.002281096,0.001784523,8.538378384506818E-4,-0.996914279,0.012580204420515056,0.009687797,0.076875189,0.02125754,0.023595453176683594,2.9874201746820246,9.891048959157999,-0.231421377,-0.209456195,-99.23540886,-11.61122771,-34.90261311,-0.02144489,0.012844101589136911,5.14475715197442E-4,-152.5,9.891048959157999,-0.231421377,-0.209456195,-51.05553493,-61.41138275,-8.681519833,-2.18E-04,-1.36E-04,-2.49E-04,Home
212,0,0.16278821229934692,1.210510015487671,10.192999839782715,0.006641633,0,160.6999969482422,-86.9155258,40.3848543,0.016735956506821716,0.002329318,-4.90E-04,-0.996911498,0.012520703,0.00973314,0.076915227,0.021339722918075264,0.023468963729525075,2.987340276681104,9.918255685602578,-0.230314987,-0.212174255,-99.2228421,-11.62513576,-34.83490341,-0.021444889,0.012998296056412955,4.7889238198568085E-4,-123.7777778,9.918255685602578,-0.230314987,-0.212174255,-51.04199291,-61.42492481,-8.615029802,-2.18E-04,1.779166773612638E-5,-2.85E-04,Home
213,0,0.17691805958747864,1.220429539680481,10.21399974822998,0.004026095,0,160.6999969482422,-86.9155258,40.3848543,0.014508127008826987,0.001162323,-6.64E-04,-0.996911755,0.012345485913666706,0.009750069,0.076938046,0.021346913614464037,0.023116472909606778,2.9872984932464304,9.949774797680309,-0.228465197,-0.212406569,-99.24053215,-11.65746575,-34.87626137,-0.021397445,0.012998296065454922,6.212257131373564E-4,-70.375,9.949774797680309,-0.228465197,-0.212406569,-51.06078083,-61.45774258,-8.655411797,-1.71E-04,1.7791674517601437E-5,-1.42E-04,Home
214,0,0.16278821229934692,1.230454683303833,10.213000297546387,0.001784698,0,160.6999969482422,-86.9155258,40.3848543,0.002328873,0.002147113,0.001484965,-0.996910999,0.012186315317538757,0.009779527,0.076969475,0.021381767,0.022793863909047783,2.987238740458072,9.950288809618904,-0.224292275,-0.211221772,-99.22003601,-11.6087878,-34.84844528,-0.021148362,0.013128768304561816,9.88920173467616E-4,-121.2222222,9.950288809618904,-0.224292275,-0.211221772,-51.04077282,-61.40869881,-8.627961874,7.857987487652493E-5,1.4826389101957812E-4,2.2536112465760082E-4,Home
215,0,0.17691805958747864,1.2402958869934082,10.222000122070312,0.006675074,0,160.6999969482422,-86.9155257,40.3848542,-0.003459188,8.366073553378766E-4,1.8959850645982302E-4,-0.996910384,0.012062805319706408,0.009803968,0.076993843,0.021411953762603495,0.022543287,2.987192385471784,9.942401830432484,-0.2234937,-0.212871193,-99.23675026,-11.58231373,-34.82380127,-0.021320918,0.012886527871999603,5.873531207236318E-4,-130,9.942401830432484,-0.2234937,-0.212871193,-51.05614468,-61.38234665,-8.604049768,-9.40E-05,-9.40E-05,-1.76E-04,Home
216,0,0.18439088761806488,1.2503656148910522,10.232000350952148,0.004591099,0,160.6999969482422,-86.9155257,40.3848542,-0.001405216,-0.001757286,-7.70E-04,-0.996905701,0.012183501728747076,0.009873427,0.077026503,0.021569925,0.022772536332746153,2.987122267195322,9.940435733609986,-0.228186421,-0.215217554,-99.25273239,-11.57560373,-34.81172306,-0.021670251,0.013116907210821666,2.653923538938454E-4,-76.88888889,9.940435733609986,-0.228186421,-0.215217554,-51.07237076,-61.37588081,-8.59111784,-4.43E-04,1.364027769350022E-4,-4.98E-04,Home
217,0,0.17691805958747864,1.1097946166992188,10.230999946594238,0.071973063,0,160.6999969482422,-86.9155273,40.3848544,-5.33E-04,0.001244928,0.001466109,-0.996906199,0.012290368697524649,0.009864225,0.077004258,0.021567607153821916,0.022987534735098625,2.987164423303697,9.940432844810115,-0.227315246,-0.212940888,-99.25273262,-11.59963777,-34.82563137,-0.02133814,0.012974573846327738,5.263368179795595E-4,-70.125,9.940432844810115,-0.227315246,-0.212940888,-51.07298061,-61.39967087,-8.604659834,-1.11E-04,-5.93E-06,-2.37E-04,Home
218,0,0.17691805958747864,1.1198076009750366,10.227999687194824,0.048225294798612595,0,160.6999969482422,-86.9155276,40.3848545,-2.71E-04,0.002970034,9.483511297448167E-4,-0.9969081,0.012281247794411136,0.009846427,0.076983432,0.021530212111120085,0.022972545251973623,2.987206843292829,9.939335193448853,-0.225395763,-0.213057044,-99.25492798,-11.61720575,-34.84112522,-0.021314417,0.013235518320020541,5.500590478440801E-4,-55.66666667,9.939335193448853,-0.225395763,-0.213057044,-51.07505516,-61.41736069,-8.621617813,-8.75E-05,2.5501390873879483E-4,-2.14E-04,Home
