seconds_elapsed,accelerometerUncalibrated_z,accelerometerUncalibrated_y,accelerometerUncalibrated_x,gyroscope_z,gyroscope_y,gyroscope_x,gyroscopeUncalibrated_z,gyroscopeUncalibrated_y,gyroscopeUncalibrated_x,location_bearingAccuracy,location_speedAccuracy,location_verticalAccuracy,location_horizontalAccuracy,location_speed,location_bearing,location_altitude,location_longitude,location_latitude,magnetometer_z,magnetometer_y,magnetometer_x,microphone_dBFS,accelerometer_z,accelerometer_y,accelerometer_x,orientation_qz,orientation_qy,orientation_qx,orientation_qw,orientation_roll,orientation_pitch,orientation_yaw,magnetometerUncalibrated_z,magnetometerUncalibrated_y,magnetometerUncalibrated_x,totalAcceleration_z,totalAcceleration_y,totalAcceleration_x,class
0,10.25354021,0.310739929,0.102939229,0.143034487,-0.047708845,0.12465468,0.121801269,-0.031979528,0.124878517,55.32154846,1.565407276,3.550578117,8.31499958,1.340000033,315,151.1999969,-86.910283,40.4233331,-45.36118361,21.39277877,-2.924514226,-83.77777778,-0.166579906,-0.480915291,-0.032827178,-0.041454466,-0.008134381,0.037242402,0.997828264,-0.012830034,-0.074937051,0.08256912,-104.2559926,75.12564667,-31.64549797,10.23035606,0.343481258,0.124898438,Campus
1,9.761327308,0.457969572,-0.074358691,0.007728996,-0.017343912,-0.00522482,-0.013497946,-0.001599769,-0.005036525,55.32154846,1.565407276,3.550578117,8.31499958,1.340000033,315,151.1999969,-86.910283,40.4233331,-46.23836525,19.56221157,-1.176201974,-50.125,-0.283416336,-0.080747327,-0.062563568,-0.02585922,-2.01E-04,0.026577211,0.999063503,0.001030595,-0.05299125,0.05160411,-105.0981181,73.32236465,-29.9165954,9.761327308,0.457969572,-0.074358691,Campus
2,9.948035268,0.314542925,0.368895428,-0.002922282,0.027467369,0.004335237,-0.024149225,0.043215962,0.004530946,55.32154846,1.565407276,3.550578117,8.31499958,1.340000033,315,151.1999969,-86.910283,40.4233331,-46.02925705,20.53198954,-1.375183967,-50.33333333,-0.038376956,-0.075146726,0.22267698,-0.01855625,-0.007268797,0.019424298,0.999447901,-0.013848354,-0.03901228,0.036805719,-104.8892538,74.29263069,-30.11557745,9.948035268,0.314542925,0.368895428,Campus
3,9.717772572,0.544187108,0.093987981,0.107163665,-0.03846855,-0.038756181,0.085933757,-0.022739234,-0.038570853,55.32154846,1.565407276,3.550578117,8.31499958,1.340000033,315,151.1999969,-86.910283,40.4233331,-46.82128105,18.40321157,-1.297103977,-47.875,-0.218164319,-0.116916888,-0.138743789,-0.015789222,-0.012291812,0.033501612,0.998485484,-0.022611903,-0.066678939,0.03115969,-105.6805461,72.16409653,-30.03652149,9.717772572,0.544187108,0.093987981,Campus
4,9.962639068,0.269215781,-0.03603173,-0.030701006,0.04943415,-0.037759849,-0.051927948,0.065184222,-0.037565623,45,1.5,5.343883991,18.02700043,1.363816977,313.7577209,166.8999939,-86.9103176,40.4233382,-44.59490307,22.09981161,-0.258761994,-47.33333333,0.039042468,0.114695277,0.064208334,4.80E-04,0.004487911,0.008224377,0.999389077,0.00929862,-0.015712596,-8.84E-04,-103.4548995,75.86167252,-28.9996435,9.962639068,0.269215781,-0.03603173,Campus
5,9.834843719,0.458849882,0.198845303,-0.093209065,-0.005921659,0.015650737,-0.114436008,0.009813587,0.015862755,45,1.5,5.353889465,15.66899967,1.274348855,317.9811707,166.8999939,-86.9103165,40.4233468,-45.16354488,24.18881754,-3.180783923,-39.77777778,-0.082883316,-0.086747318,0.119491424,-0.027084513,-0.005150867,0.027362121,0.99866784,-0.008162666,-0.054553414,0.054218818,-104.0231759,77.94811638,-31.92007933,9.834843719,0.458849882,0.198845303,Campus
6,10.10180317,-0.022516926,0.054035974,0.00643739,0.011735316,0.0181962,-0.014789552,0.027480785,0.018390025,45,1.5,5.363905907,13.84599972,1.090743542,335.6897278,166.8999939,-86.9103124,40.4233638,-50.99673107,34.72498135,-9.034587817,-40.25,0.131473569,-0.167221494,0.092369388,-0.04480891,0.001382936,0.008165523,0.99868312,0.003613326,-0.015866531,0.089818497,-109.8567281,88.48501183,-37.77412739,10.10180317,-0.022516926,0.054035974,Campus
7,9.92965058,0.514372656,-0.187043812,-0.017748671,0.034406121,-0.027262765,-0.038975613,0.050148781,-0.0270804,45,1.5,5.373905182,13.44299984,1.171316028,346.1084595,166.8999939,-86.9103106,40.4233784,-61.1582328,23.90663153,-15.07273374,-42.77777778,-3.36E-04,0.085596593,-0.079870809,-0.082100636,0.003510129,0.02220602,0.995921932,0.010791099,-0.0431655,0.164741471,-120.0181076,77.66580849,-43.81337139,9.92965058,0.514372656,-0.187043812,Campus
8,9.973127958,0.239444886,-0.011595318,-0.013324477,-0.033913885,-0.030572017,-0.03455142,-0.01817419,-0.030397062,45,1.5,5.373905182,13.44299984,1.171316028,346.1084595,166.8999939,-86.9103106,40.4233784,-55.53098286,13.5412677,-11.21204377,-40,0.036188815,-0.003786615,-0.003812815,-0.121065903,-0.001039304,0.012213627,0.991988995,8.26E-04,-0.024471035,0.242800199,-114.3911013,67.30129883,-39.95255947,9.973127958,0.239444886,-0.011595318,Campus
9,9.976319318,-0.082738233,-0.015164221,-0.018298729,0.032460897,-0.011914488,-0.039533085,0.048212455,-0.011723226,45,1.5,5.243122101,12.13899994,1.29186964,342.1283569,154.5999908,-86.9103169,40.4233946,-47.07052708,13.85480768,-2.791603932,-36.77777778,0.0555389,-0.073649273,0.1887254,-0.115882006,0.010284117,9.24E-04,0.992824186,0.02054351,9.41E-04,0.23235856,-105.9304021,67.61496071,-31.53126549,9.976319318,-0.082738233,-0.015164221,Campus
10,10.03324473,0.335625319,-0.444498749,0.099587378,-0.045359857,0.014950931,0.078342643,-0.029621644,0.015140709,45,1.5,5.263132095,11.20800018,1.689697385,351.3954163,154.5999908,-86.9103165,40.4234201,-43.51715515,16.4753677,-0.759571983,-34.375,0.120749872,0.126576502,-0.380115031,-0.107671173,0.001979815,0.010809245,0.993760766,0.006519914,-0.021089454,0.215849028,-102.3780061,70.23539894,-29.49972143,10.03324473,0.335625319,-0.444498749,Campus
11,10.06534801,-0.251735299,0.073320456,-0.002732502,0.01445573,-0.012483823,-0.023971305,0.030201357,-0.012274768,45,1.5,5.273110867,10.85000038,2.009584427,0.322970569,154.5999908,-86.9103091,40.4234458,-43.88315498,22.24840754,-1.329189978,-24.11111111,0.144826621,-0.120987383,-0.00774341,-0.055172199,-0.004187463,-0.006181269,0.997960346,-0.009633505,0.011981227,0.110469145,-102.7424199,76.00843872,-30.06885134,10.06534801,-0.251735299,0.073320456,Campus
12,9.820835308,-0.298699186,0.395178729,0.002584241,0.029187231,-0.024878681,-0.018645667,0.044932858,-0.024684455,45,1.5,5.283140182,10.37199974,2.069635391,6.803235054,154.5999908,-86.9102993,40.4234661,-44.58977917,22.57695356,-1.026385974,-16.625,-0.104259667,-0.031830173,0.303977773,-0.033765523,-0.004107373,-0.013685419,0.998998889,-0.009350573,0.027408799,0.067631297,-103.4502641,76.33698479,-29.76641348,9.820835308,-0.298699186,0.395178729,Campus
13,9.773841284,0.037962834,-1.736924979,0.044101095,0.194222741,0.08246438,0.02285636,0.209999502,0.082679362,45,1.5,5.293126106,9.491000175,2.088451624,8.954950333,154.5999908,-86.9102929,40.4234855,-43.65037922,20.55663366,9.638731869,-17,0.033463807,0.073377373,0.178241025,0.005298871,0.097247188,-9.82E-04,0.994345242,0.194830102,0.001074223,-0.010113967,-102.5114739,74.3172747,-19.10153957,9.773841284,0.037962834,-1.736924979,Campus
14,9.894112518,-0.355357394,-0.937800632,-0.102140482,-0.169521976,-0.091965129,-0.123367424,-0.15378821,-0.091782767,45,1.5,19.83735275,8.873000145,2.031344652,8.684417725,166,-86.9102895,40.4235032,-43.48433708,23.89089361,2.733897939,-42.55555556,0.011532621,0.041268937,-0.069770942,-0.042209941,0.045962795,-0.018026243,0.997258979,0.090200038,0.03931417,0.083655225,-102.3444561,77.65129044,-26.00527557,9.894112518,-0.355357394,-0.937800632,Campus
15,9.860915054,-0.489236397,-0.311868424,-0.03695181,0.060026123,0.032434212,-0.058178753,0.075782127,0.032638814,45,1.5,19.84734344,8.487999916,1.849878907,6.517203331,166,-86.9102894,40.4235171,-42.24664722,26.34101952,-2.673385953,-46.75,-0.092807071,0.008601164,-0.028929465,-0.083597508,0.015397928,-0.023826054,0.995717137,0.027172629,0.05018583,0.16706079,-101.1061556,80.10031822,-31.41329132,9.860915054,-0.489236397,-0.311868424,Campus
16,9.679586156,-0.758966178,-0.935152261,0.098356685,-9.40E-05,-0.040174955,0.077119467,0.015651494,-0.039975254,45,1.5,19.85735512,8.039999962,1.594774365,3.018609762,166,-86.9102915,40.423527,-42.8065052,26.85463947,3.122589941,-34.33333333,-0.112216963,-0.11898081,0.174098944,-0.052474205,0.057307451,-0.03074492,0.99614851,0.111372298,0.067492413,0.101516127,-101.6662582,80.61430473,-25.6174375,9.679586156,-0.758966178,-0.935152261,Campus
17,9.623944283,-0.715938919,-1.31583176,-0.081024738,0.064568928,0.019968181,-0.102266509,0.08032345,0.020177234,45,1.5,19.86734581,7.915999889,1.44884479,358.5793762,166,-86.9102949,40.4235376,-41.50147114,25.20556547,5.9740959,-35.625,-0.180312782,0.07233496,0.037083646,-0.011543897,0.068780165,-0.038769914,0.995797927,0.137165341,0.079338807,0.018040844,-100.3622002,78.96584061,-22.76580952,9.623944283,-0.715938919,-1.31583176,Campus
18,10.01105307,-1.453410341,-1.522883515,0.072757545,-0.024958744,0.014405321,0.051500949,-0.009189395,0.014611407,45,1.5,19.87733078,7.637000084,1.214235783,337.0387268,166,-86.9103107,40.4235421,-39.9401152,30.0077294,4.018313932,-30.11111111,0.199023876,-0.157772384,-0.357625929,-0.023251394,0.060071635,-0.063532451,0.995315652,0.118196079,0.130239617,0.039340561,-98.79986832,83.76678482,-24.72281147,10.01105307,-1.453410341,-1.522883515,Campus
19,9.650491849,-0.547175235,-1.008751883,0.052716712,-0.063846884,0.006778623,0.031479392,-0.048079016,0.006981748,45,1.5,5.914306641,6.74849987,1.167893469,324.6212769,154.5999908,-86.91032795,40.4235522,-43.10028103,26.33064955,5.861611876,-33.25,-0.201867784,-0.101940558,0.234071428,0.002119972,0.062428303,-0.022449278,0.997432297,0.125400954,0.044821158,-0.006755349,-101.9600336,80.09092445,-22.87756155,9.650491849,-0.547175235,-1.008751883,Campus
20,10.08883426,-0.424990279,-0.757035071,-0.082984788,-0.010001882,0.049205822,-0.104211729,0.005748191,0.049407461,45,1.5,5.924317837,5.772999763,1.116086483,323.4144897,154.5999908,-86.9103396,40.423562,-44.89465721,26.0856735,2.775865939,-37.55555556,0.193577123,-0.039134151,-0.096539838,-0.013007112,0.032873213,-0.019226169,0.998274147,0.066646715,0.038934252,0.024714225,-103.7544102,79.84460655,-25.9639175,10.08883426,-0.424990279,-0.757035071,Campus
21,9.868943943,-0.223915859,-1.194547682,0.116246309,0.045875815,-0.009162709,0.095007505,0.061618475,-0.008981827,45,1.5,5.924317837,5.772999763,1.116086483,323.4144897,154.5999908,-86.9103396,40.423562,-45.60311096,21.35036549,6.588365879,-43.5,0.063999977,-0.137580598,0.112657961,0.025015155,0.065943561,-0.006427071,0.996973699,0.132877008,0.009143938,-0.05089597,-104.4624976,75.11039642,-22.15300352,9.868943943,-0.223915859,-1.194547682,Campus
22,9.795658371,-0.162964575,-1.624767232,0.076292155,-0.064906968,-0.114975687,0.055059283,-0.049164308,-0.114805184,45,1.5,5.9342556,5.017000198,1.022203565,319.8648071,154.5999908,-86.910348,40.423566,-43.77957718,21.2627696,7.454443874,-45.66666667,-0.032945763,0.104976061,-0.121262736,0.045375434,0.075493768,-0.015734123,0.995297016,0.153307819,0.023902269,-0.093036353,-102.6390858,75.02267868,-21.28729162,9.795658371,-0.162964575,-1.624767232,Campus
23,10.06255973,-0.724215073,0.031553896,-0.1016349,-0.07322161,0.008925487,-0.122869256,-0.057478947,0.009119713,45,1.5,5.954334259,4.147999763,0.639253497,296.5960083,154.5999908,-86.9103532,40.4235589,-42.31569912,25.95452353,0.400891994,-45.75,0.191574166,0.146133681,0.034314942,0.058216577,-0.003168579,-0.044718425,0.996818281,-4.95E-04,0.08960394,-0.116665023,-101.17655,79.71418869,-28.33937946,10.06255973,-0.724215073,0.031553896,Campus
24,9.471474411,-0.443072926,-1.653184909,-0.094025998,0.201244517,0.052194821,-0.115254422,0.217042037,0.052381634,45,1.5,11.13858414,3.963000059,0.551927447,305.1429443,154.5,-86.9103564,40.4235635,-41.16121315,23.38410551,5.002243913,-43.33333333,-0.244877982,0.138193008,0.15319799,-0.015189051,0.08927582,-0.029902353,0.993601712,0.178742476,0.061128109,0.024463785,-100.0206001,77.14425858,-23.73790552,9.471474411,-0.443072926,-1.653184909,Campus
25,9.660182184,-0.722237504,-1.618242148,-0.045717173,-0.024982466,-0.079178852,-0.066944115,-0.009235358,-0.079018727,45,1.5,11.14850235,3.884000063,0.520235002,313.8245544,154.5,-86.9103593,40.4235686,-40.82278511,23.77804359,4.591347919,-39.77777778,-0.116136292,-0.113062552,-0.047689382,-0.040549975,0.081758119,-0.026693464,0.995005351,0.162123519,0.059336074,0.076329051,-99.68241623,77.53746468,-24.14867952,9.660182184,-0.722237504,-1.618242148,Campus
26,9.712620999,-0.241375983,-0.943541662,0.040268931,-0.227138268,0.161898018,0.019041989,-0.2113928,0.162110934,45,1.5,11.15843964,3.874000072,0.529702127,314.4882813,154.5,-86.9103639,40.423573,-41.97165924,22.82095356,-0.043310001,-26.375,-0.140645229,-0.170623399,-0.132578908,-0.088100722,0.042054154,1.99E-04,0.994441867,0.083503088,0.007449218,0.175299927,-100.8310461,76.58110634,-28.78260536,9.712620999,-0.241375983,-0.943541662,Campus
27,9.960766019,0.118613148,0.934571476,0.08308264,-8.14E-04,-0.068100573,0.061855698,0.014940552,-0.067924139,45,1.5,11.16846657,3.849999905,0.607980728,315.8618469,154.5,-86.9103703,40.4235787,-42.09927124,21.95524145,-6.790031857,-30.11111111,0.080794983,-0.055739981,0.070239938,-0.061235616,-0.044288509,0.006064366,0.99658878,-0.087272157,-0.017598767,0.1219012,-100.9592683,75.71490654,-35.53079144,9.960766019,0.118613148,0.934571476,Campus
28,9.980669387,-0.103326957,1.188262945,-0.102994481,-0.030829995,-0.011997514,-0.124221424,-0.015087334,-0.011813667,45,1.5,11.17847347,3.895999908,0.769156277,323.0694885,154.5,-86.9103768,40.4235876,-41.94652714,23.77328548,-7.957815833,-31.125,0.101624646,-0.093726226,0.142190697,-0.065770131,-0.052854893,-0.003863759,0.995901218,-0.105518577,9.18E-04,0.132121501,-100.8068903,77.53417053,-36.69759945,9.980669387,-0.103326957,1.188262945,Campus
29,10.03348864,-0.001091872,0.671947579,0.024763035,0.070843457,-0.009293181,0.003522748,0.086602428,-0.009107852,45,1.5,10.94694233,4.143000126,1.234469056,332.1800232,166,-86.9103917,40.4236129,-42.92691925,24.9603455,-9.294203815,-31.33333333,0.142518544,0.01071463,-0.039691256,-0.114601732,-0.035907936,-0.004341979,0.991966061,-0.071834006,0.001151159,0.230365131,-101.7872822,78.72000954,-38.03301121,10.03348864,-0.001091872,0.671947579,Campus
30,10.17238853,-0.231569478,0.479714481,0.005316744,0.062943954,-0.059335213,-0.015917612,0.078689582,-0.059154332,45,1.5,10.94694233,4.143000126,1.234469056,332.1800232,166,-86.9103917,40.4236129,-46.64840714,31.34850943,-7.142977839,-25.875,0.261414935,0.014380186,0.141215082,-0.069733891,-0.016361982,-0.013243205,0.996746104,-0.034157458,0.024799178,0.140067149,-105.509014,85.10756424,-35.88276119,10.17238853,-0.231569478,0.479714481,Campus
31,10.03291554,0.309232062,0.00161343,0.029861832,0.028273924,0.127655216,0.008623028,0.044022517,0.127873164,45,1.5,10.96697712,4.552000046,1.1692729,338.473938,166,-86.910394,40.423624,-61.13663876,36.89804537,-15.79265569,-20.11111111,0.075927633,-0.086432204,0.044620384,-0.064024863,-1.16E-04,0.020729162,0.996690634,0.003955686,-0.041337976,0.128278313,-119.9965135,90.65746613,-44.53195114,10.03291554,0.309232062,0.00161343,Campus
32,9.398934753,0.663192285,0.094499076,0.009073749,-0.07067147,-0.058694711,-0.012169502,-0.054933257,-0.0585079,45,1.5,10.97694111,4.900000095,1.331714988,343.9319153,166,-86.9103973,40.4236396,-78.43172478,12.58844776,-25.89059554,-25.88888889,-0.491076895,0.043241391,-0.177006918,-0.035528745,-0.014939721,0.029532927,0.99817186,-0.027663463,-0.060353959,0.070313029,-137.293308,66.34750267,-54.63050091,9.398934753,0.663192285,0.094499076,Campus
33,9.897181969,-0.232455168,0.298246174,0.04926068,0.015914647,-0.031900461,0.028027807,0.031651376,-0.031701786,45,1.5,10.98696041,5.415999889,1.502019405,349.4879761,166,-86.9103986,40.423657,-82.55508064,14.52178179,-3.622057907,-35,-0.02418744,-0.019946754,0.017455738,-0.021029358,-0.013754081,-0.01048706,0.999276089,-0.027539319,0.020457871,0.042437804,-141.4156868,68.28230091,-32.36135334,9.897181969,-0.232455168,0.298246174,Campus
34,9.857401251,-0.432589812,0.368451128,0.008606719,-0.035277911,-0.018924403,-0.012620222,-0.019539699,-0.018745004,45,1.5,6.620212555,6.052000046,1.629031301,353.5151978,158.8999939,-86.9103988,40.4236746,-76.37212051,21.9565835,-2.487823953,-29,-0.040127018,-0.029495503,-0.043736122,-0.023935597,-0.020002449,-0.02073857,0.999111654,-0.040930796,0.040455584,0.048705293,-135.2319947,75.71600449,-31.22760748,9.857401251,-0.432589812,0.368451128,Campus
35,10.03283817,-0.653249289,0.574710115,-0.005706678,0.052363843,0.004987596,-0.026936586,0.068107988,0.005169962,45,1.5,6.630208969,6.34100008,1.711269021,357.8346252,158.8999939,-86.9103967,40.4236921,-58.47459896,18.82118361,-0.033305999,-37.375,0.148928221,-0.024824004,0.251317459,0.005313764,-0.016800214,-0.031844756,0.998991898,-0.03308571,0.064210318,-0.009483386,-117.3348397,72.58194641,-28.77345541,10.03283817,-0.653249289,0.574710115,Campus
36,10.11174321,-0.736153047,0.394853487,-0.102504868,-0.033714069,-0.006378654,-0.12373181,-0.017978879,-0.006199513,45,1.5,6.630208969,6.34100008,1.711269021,357.8346252,158.8999939,-86.9103967,40.4236921,-49.72097717,15.95320772,0.67234198,-38.77777778,0.168873952,-0.102850099,-0.032787166,-0.02040938,-0.020910495,-0.031645469,0.99866087,-0.043040021,0.062284487,0.042316085,-108.5820719,69.71433701,-28.06817339,10.11174321,-0.736153047,0.394853487,Campus
37,9.992107956,-0.540731454,0.551754702,0.01743287,-0.001912604,-0.01078768,-0.003795554,0.013816713,-0.010597904,45,1.5,6.640202522,6.785999775,1.813739777,1.810493231,158.8999939,-86.9103924,40.4237267,-44.59600105,16.42778775,-1.476809967,-40.5,0.09222163,0.070834493,-0.060749585,-0.043443582,-0.02969091,-0.032005773,0.997779301,-0.061801052,0.061580147,0.089022547,-103.4556322,70.18720879,-30.21671539,9.992107956,-0.540731454,0.551754702,Campus
38,9.955849657,-0.511532632,0.299059274,0.058802943,0.015487647,0.010491154,0.037576001,0.031216964,0.010676484,45,1.5,6.660188198,6.763999939,1.960300922,15.90226841,158.8999939,-86.910374,40.4237455,-43.023787,19.38579962,-0.577547981,-40.88888889,0.044235558,0.011272805,-0.069523873,-0.035379237,-0.017758369,-0.026928524,0.998538627,-0.037188161,0.052655734,0.071819393,-101.8841505,73.14607475,-29.31684345,9.955849657,-0.511532632,0.299059274,Campus
39,9.722427507,-0.588585002,0.444214169,0.093533761,4.71E-04,9.67E-04,0.072293475,0.016208209,0.001154976,45,1.5,6.670257092,6.355999947,2.015851974,20.253088,158.8999939,-86.9103615,40.4237642,-43.84740917,20.15720562,2.393639944,-40.125,-0.191197645,-0.064639805,0.202625573,0.010674487,-0.012501684,-0.026327415,0.998846434,-0.024395127,0.052800025,-0.0207489,-102.7083818,73.91748062,-26.34638748,9.722427507,-0.588585002,0.444214169,Campus
40,9.641184788,-0.246536232,-0.27388817,-0.08578994,0.075872567,-0.057520462,-0.107022812,0.091612262,-0.057349959,45,1.5,2.235289097,5.874000072,1.880980492,17.7389431,155,-86.9103574,40.4237795,-44.36310326,18.87901161,3.550321918,-41.11111111,-0.277818865,0.067355993,0.031050479,-0.027088456,0.015609734,-0.015302133,0.99902331,0.030744143,0.031668001,0.053821865,-103.2231003,72.6383107,-25.19007153,9.641184788,-0.246536232,-0.27388817,Campus
41,10.03873657,-0.534085496,-0.517214939,0.064284262,-0.055809497,0.066475601,0.043043976,-0.040060906,0.066671309,45,1.5,2.245118856,5.620999813,1.767726421,13.45833111,155,-86.9103565,40.4237937,-42.94790302,20.48257959,2.679119958,-37.77777778,0.138243472,-0.121467062,-0.220157743,-0.050092457,0.01649318,-0.020693895,0.997916904,0.030834667,0.043366945,0.099667511,-101.8079003,74.2416346,-26.06151756,10.03873657,-0.534085496,-0.517214939,Campus
42,10.28750248,-0.450547596,-0.208788298,-0.146358705,0.055495176,-0.027820237,-0.167585648,0.071245251,-0.027626013,45,1.5,2.255152225,5.369999886,1.694318056,9.643978119,155,-86.9103562,40.4238081,-42.34083118,21.78944351,2.122677959,-36.375,0.366504891,-0.015188575,0.080277733,-0.070386349,0.016061566,-0.019499786,0.996154486,0.028642129,0.041861447,0.140194066,-101.2016819,75.55032845,-26.61686159,10.28750248,-0.450547596,-0.208788298,Campus
43,10.11047429,-0.491396915,-0.055281753,-0.034615173,-0.004083188,0.052526934,-0.055842115,0.011668369,0.052727092,45,1.5,2.265149117,5.355000019,1.669467807,6.859619141,155,-86.9103559,40.4238228,-42.90642307,22.60647757,1.439355974,-40.66666667,0.182952321,-0.193748835,0.123247071,-0.075220509,0.009337659,-0.014301001,0.996754399,0.016831302,0.030024159,0.150450706,-101.7673961,76.36748444,-27.30030544,10.11047429,-0.491396915,-0.055281753,Campus
44,9.510561073,-0.014493419,-0.188019524,0.113020087,0.014894592,-0.022435293,0.091793144,0.030646147,-0.022242549,45,1.5,2.275138378,5.553999901,1.532270074,4.438141346,155,-86.9103564,40.4238343,-44.01381714,21.24117563,1.810235963,-34.125,-0.461117564,-0.078258966,-0.063088225,-0.044129994,0.006493831,0.003111445,0.998790816,0.01347253,-0.00547511,0.088439713,-102.8746676,75.00193863,-26.92930357,9.510561073,-0.014493419,-0.188019524,Campus
45,9.887599079,-0.449963912,-0.501694183,-0.055383977,-0.069259997,0.041484239,-0.07661092,-0.053523267,0.041690326,45,1.5,3.36433816,5.934999943,1.575789928,1.63823092,158.8999939,-86.9103577,40.4238502,-43.65025707,23.27088959,2.391687955,-46.55555556,-0.030765538,-0.250018825,-0.288268177,-0.023069971,0.01050847,-0.010057447,0.998966179,0.021175442,0.019839768,0.045620771,-102.51001,77.03104256,-26.34858337,9.887599079,-0.449963912,-0.501694183,Campus
46,10.40322039,-0.417756634,-0.391705649,0.529372568,0.007365407,-0.088631588,0.508083956,0.023102069,-0.08844657,45,1.5,3.374271154,6.199999809,1.555694461,357.7048035,158.8999939,-86.910361,40.4238641,-44.03284897,22.48972372,5.810859895,-45.75,0.464736581,0.064968398,-0.237404895,0.109370324,0.003735667,-0.024770181,0.988640084,0.015576728,0.048117999,-0.220846873,-102.8923585,76.2495105,-22.93014362,10.40322039,-0.417756634,-0.391705649,Campus
47,9.570567525,-0.555889872,-0.209944052,0.341828347,-0.0509583,-0.026100376,0.320582132,-0.035215641,-0.025920977,45,1.5,3.384307623,6.300000191,1.358428836,351.0265198,158.8999939,-86.9103671,40.4238725,-44.57123489,18.92598158,12.09593374,-45.77777778,-0.346086039,0.104437028,-0.051177661,0.285213911,-0.002234989,-0.033943486,0.955516452,0.015952984,0.066464499,-0.580740263,-103.4309877,72.68528069,-16.64323968,9.570567525,-0.555889872,-0.209944052,Campus
48,9.620311506,-0.863599895,-0.099215024,0.206393723,0.03706301,-0.027559293,0.185151955,0.052810117,-0.027384342,45,1.5,3.394344807,6.401000023,1.438158035,345.0622253,158.8999939,-86.9103754,40.4238867,-44.96224495,14.07428572,17.39244166,-38.77777778,-0.296035012,-0.239403762,0.211475515,0.398098262,0.001388029,-0.035322264,0.91507259,0.031341888,0.062802307,-0.821874045,-103.8221201,67.83407272,-11.34648779,9.620311506,-0.863599895,-0.099215024,Campus
49,10.28083799,-0.682712369,-0.241895781,-0.104354061,0.028333231,-0.02239971,-0.125585452,0.044068479,-0.022212897,45,1.5,3.404337168,6.44299984,1.496634722,338.8470764,158.8999939,-86.9103857,40.4238998,-45.37558132,15.37712365,21.59912361,-49,0.382868776,-0.12217621,0.097427526,0.406241255,0.003683734,-0.032624841,0.912474698,0.034291453,0.056539996,-0.838941939,-104.2354557,69.13825272,-7.141757877,10.28083799,-0.682712369,-0.241895781,Campus
50,10.08890107,-0.678882116,-0.052380747,-0.160691378,0.041249982,-0.010752097,-0.181925734,0.057004503,-0.010571216,45,1.5,3.404337168,6.44299984,1.496634722,338.8470764,158.8999939,-86.9103857,40.4238998,-46.59082302,16.46755967,26.27099157,-52.33333333,0.20477188,0.119374963,0.284238448,0.37966138,1.64E-04,-0.043603066,0.922894278,0.034032482,0.080535099,-0.782042336,-105.4500879,70.22807907,-2.469523957,10.08890107,-0.678882116,-0.052380747,Campus
51,9.456880845,-0.85884789,-0.497500039,0.283556188,-0.058525691,0.039764375,0.26232035,-0.042784514,0.039955638,45,1.5,1.469456434,6.380000114,1.405412555,319.7796936,154.5999908,-86.9104134,40.4239162,-44.79864307,4.685653918,24.84773949,-55.75,-0.455383801,-0.199070709,-0.135513068,0.452536589,0.001454237,-0.038418571,0.889906978,0.037223561,0.067315244,-0.942043955,-103.6581519,58.44507492,-3.891677907,9.456880845,-0.85884789,-0.497500039,Campus
52,10.19630518,-0.880968186,0.18662855,-0.343834359,0.044760872,0.008095208,-0.365061301,0.060519841,0.008282022,45,1.5,1.479473591,6.43599987,1.526640773,313.9325562,154.5999908,-86.9104311,40.423926,-41.3972831,4.378457912,22.06516344,-59.11111111,0.277395295,-0.115968807,0.532051163,0.491493635,-0.003549263,-0.041543504,0.867576656,0.034980071,0.075384668,-1.032171157,-100.2571579,58.13873287,-6.675839849,10.19630518,-0.880968186,0.18662855,Campus
53,9.865863291,-0.476401114,-0.158962991,-0.454557835,0.014194786,0.045777961,-0.47578478,0.029930034,0.045967739,45,1.5,1.479473591,6.43599987,1.526640773,313.9325562,154.5999908,-86.9104311,40.423926,-40.71432713,17.93656158,16.47256174,-57.5,-0.065356287,-0.036137889,0.313704627,0.281514516,0.016051724,-0.028116419,0.957768941,0.046820096,0.044670972,-0.572834492,-99.57383606,71.69671448,-12.26807576,9.865863291,-0.476401114,-0.158962991,Campus
54,9.688231056,-0.899457387,-0.036966786,-0.434500694,-0.017367633,0.041033517,-0.455727639,-0.001627938,0.041214398,45,1.5,1.499416947,6.335999966,1.489241838,302.9215393,154.5999908,-86.9104637,40.4239383,-40.90245117,27.12987141,4.710175944,-58.44444444,-0.196014335,-0.498976856,0.331903062,0.020956914,0.017996207,-0.021160653,0.998032344,0.037039909,0.041417816,-0.042921017,-99.76269211,80.8897805,-24.02972952,9.688231056,-0.899457387,-0.036966786,Campus
55,10.30366852,-0.38225632,-0.388203531,-0.315747245,0.06182901,0.011036765,-0.336974187,0.077577602,0.011222096,45,1.5,1.230058074,6.275000095,1.451129913,296.7145691,154.5999908,-86.9104806,40.4239419,-42.00984528,25.84179548,-4.556333889,-50.75,0.384338509,-0.33470682,0.021745565,-0.180887242,0.019769123,0.002232385,0.981729062,0.040033246,0.004021669,0.36440992,-100.8698418,79.60121658,-33.29538553,10.30366852,-0.38225632,-0.388203531,Campus
56,9.608829438,-0.381266088,-0.414820781,-0.011429891,-0.12065408,0.026078479,-0.032668581,-0.104924763,0.026253215,45,1.5,1.230058074,6.236000061,1.387896776,302.2663269,154.5999908,-86.9104917,40.4239503,-41.91651524,25.84679752,-5.661409864,-49.77777778,-0.325439985,-0.384017535,-0.294866405,-0.180296246,0.006495396,8.45E-04,0.982958512,0.013349168,2.68E-04,0.362790635,-100.7767561,79.6071946,-34.40143721,9.608829438,-0.381266088,-0.414820781,Campus
57,10.0391687,-0.583238907,0.10124195,0.149943728,0.065755038,-0.054258656,0.128716786,0.081485838,-0.054092601,45,1.5,1.249971628,6.032000065,1.16740942,300.4389038,154.5999908,-86.9104993,40.4239525,-39.9769593,28.96950953,-7.31158185,-57.25,0.119700089,0.048712168,0.061236654,-0.180312947,0.003785533,-0.031889684,0.982703215,-0.004047502,0.063595813,0.363043631,-98.83817604,82.72966209,-36.05063343,10.0391687,-0.583238907,0.10124195,Campus
58,9.892213368,-0.608752666,-0.441109886,-0.124261455,0.014325258,0.021427098,-0.145488397,0.030054574,0.021587223,45,1.5,1.259977579,5.833000183,0.991589844,301.4248657,154.5999908,-86.9105053,40.4239559,-39.79395901,29.7991094,-5.147057891,-51.33333333,0.020653049,0.064178569,-0.252635126,-0.156181853,0.014676502,-0.03197096,0.986663057,0.019101552,0.068050112,0.313337536,-98.65383438,83.55889603,-33.88720726,9.892213368,-0.608752666,-0.441109886,Campus
59,9.895936202,-0.591753169,0.090442306,-0.023370838,-0.023772633,-0.017204543,-0.044597781,-0.008043316,-0.017044418,45,1.5,1.269958258,5.752999783,0.74734956,294.8612366,154.5999908,-86.910509,40.4239548,-39.8282412,28.46796751,-8.986641808,-40.125,0.033682657,-0.034013441,0.101426166,-0.227885975,0.00696894,-0.027374639,0.973188072,0.001118535,0.056484184,0.460036085,-98.68774986,82.22824211,-37.72666931,9.895936202,-0.591753169,0.090442306,Campus
60,9.939756236,-0.600775623,-0.126169124,0.013991664,0.012842619,-4.45E-04,-0.007235278,0.028571936,-2.92E-04,45,1.5,1.038009048,5.580999851,0.496897012,283.0953979,154.5999908,-86.9105096,40.4239518,-39.62755119,28.75271542,-8.837679796,-36,0.044911533,0.003078922,-0.029029652,-0.224215416,0.011600839,-0.028606567,0.974025455,0.009800796,0.060945866,0.452203348,-98.48718239,82.51250267,-37.57721912,9.939756236,-0.600775623,-0.126169124,Campus
61,9.938263948,-0.542230289,-0.117271317,-0.034508422,-0.008614132,0.020620543,-0.055735364,0.007115185,0.020773255,45,1.5,1.04799819,5.468999863,0.449544281,285.8634033,154.5999908,-86.9105139,40.4239537,-39.76394707,28.45893938,-8.464847851,-32.77777778,-0.004081726,-0.007839203,-0.030381219,-0.216417379,0.010048276,-0.025335621,0.975880693,0.008709271,0.053823173,0.436229868,-98.62382278,82.2190921,-37.20572926,9.938263948,-0.542230289,-0.117271317,Campus
62,9.900364691,-0.494925162,-0.058955201,0.027465887,-0.001580493,-0.001097153,0.006238945,0.014148824,-9.44E-04,45,1.5,1.057953596,5.206999779,0.294837207,265.362793,154.5999908,-86.9105138,40.4239507,-39.89387733,27.96227741,-8.845853796,-24.625,-0.011366492,-0.009839693,0.015733873,-0.220323968,0.009120299,-0.022909131,0.975094287,0.007700691,0.048720415,0.444252233,-98.75363014,81.72121002,-37.58551548,9.900364691,-0.494925162,-0.058955201,Campus
63,9.879299775,-0.462261973,-0.132792945,-0.022172866,0.004504257,-4.09E-04,-0.043399808,0.020233574,-2.56E-04,45,1.5,1.067997575,4.940999985,0.223057628,238.6693878,154.5999908,-86.9105135,40.4239478,-39.9479232,28.07524948,-8.310761776,-15.55555556,-0.011085075,0.012859212,-0.018722576,-0.212723104,0.010583458,-0.022351012,0.976791721,0.011181862,0.048187911,0.428588493,-98.80816444,81.83491409,-37.0515213,9.879299775,-0.462261973,-0.132792945,Campus
64,9.903329553,-0.467997196,-0.08344969,0.029695776,-0.00122466,-0.008617098,0.008468834,0.014504657,-0.008464386,45,1.5,1.077958226,4.706999779,0.409760475,201.5357971,154.5999908,-86.9105142,40.4239393,-39.86227928,28.2602014,-8.711775808,-13.375,0.00993837,0.012987773,0.027526932,-0.214909518,0.010820548,-0.022380718,0.976285367,0.011532131,0.048370228,0.43306881,-98.72215401,82.02011047,-37.45204735,9.903329553,-0.467997196,-0.08344969,Campus
65,9.94093232,-0.479871287,-0.098433871,-0.001925948,0.003484202,0.010586042,-0.02315289,0.019213519,0.010738754,45,1.5,1.039226055,4.387000084,0.374267071,185.8075104,154.5999908,-86.9105118,40.423936,-40.04503521,28.3468214,-8.355413828,-15.77777778,0.01117035,-0.010677025,-0.014093766,-0.200491807,0.008769736,-0.022435453,0.979395071,0.008195176,0.047485909,0.40364959,-98.90381226,82.10660873,-37.09519741,9.94093232,-0.479871287,-0.098433871,Campus
66,9.95764724,-0.438586386,-0.073553161,0.017256435,-0.004922019,0.008575356,-0.003970507,0.010807298,0.008728067,45,1.5,1.049159408,3.857000113,0.302924037,182.0553284,154.5999908,-86.9105113,40.4239347,-40.11567318,28.25056345,-7.973431859,-20.625,0.007226192,-0.002321161,0.018386478,-0.192867716,0.008855318,-0.020513651,0.980957698,0.009460034,0.04368873,0.388059817,-98.97627998,82.01132675,-36.71309341,9.95764724,-0.438586386,-0.073553161,Campus
67,9.903454466,-0.322270231,-0.078640813,-0.060816368,-0.001710965,0.015876098,-0.08204331,0.014018352,0.01602881,45,1.5,1.059083462,3.58100009,0.232922733,185.0886841,154.5999908,-86.9105118,40.4239342,-40.4832592,27.41474146,-8.401895876,-26.11111111,-0.029031365,-0.018100595,-0.022509267,-0.202098465,0.005822519,-0.014412958,0.979172872,0.005646803,0.030606195,0.406996986,-99.34301201,81.17465073,-37.14265514,9.903454466,-0.322270231,-0.078640813,Campus
68,9.914448664,-0.192752899,-0.065631292,0.013718859,-0.003371521,0.00159532,-0.007508084,0.012357796,0.001748031,45,1.5,1.069191337,3.326999903,0.193124756,186.8929291,154.5999908,-86.9105122,40.4239335,-40.74726723,26.52841154,-9.231861763,-35.125,0.011480322,0.017879691,0.007472875,-0.219509171,0.005937386,-0.009560667,0.97552735,0.007376886,0.021273276,0.442580077,-99.60860565,80.28783234,-37.97225525,9.914448664,-0.192752899,-0.065631292,Campus
69,9.90945105,-0.139393535,-0.01905256,-0.01261281,4.45E-05,0.009210153,-0.033839752,0.015773796,0.009362865,45,1.5,1.079190969,3.335999966,0.163819134,189.4336243,154.5999908,-86.9105126,40.4239331,-40.92868111,26.2375635,-9.165737839,-38.33333333,-0.002134286,-0.008874914,0.003753148,-0.213532858,0.002524703,-0.006190976,0.976910354,0.00229359,0.013175044,0.430375793,-99.78916649,79.99735039,-37.90564331,9.90945105,-0.139393535,-0.01905256,Campus
70,9.950076742,-0.193502107,-0.086771764,0.012319247,0.003792591,-0.020229126,-0.008907695,0.019521908,-0.020076414,45,1.5,1.038798928,3.355999947,0.148601159,190.0942383,154.5999908,-86.9105129,40.4239323,-40.75056133,26.39689548,-9.186477814,-37,0.01913791,0.00641158,-0.017071829,-0.217212572,0.005604214,-0.009060172,0.97605707,0.007011645,0.020122726,0.437865709,-99.6103141,80.15717064,-37.92626129,9.950076742,-0.193502107,-0.086771764,Campus
71,9.972591712,-0.266612785,-0.02354572,0.053655222,-0.004522049,0.008700126,0.03242828,0.011207268,0.008852837,45,1.5,1.048696995,3.367000103,0.132915139,190.681015,154.5999908,-86.9105131,40.4239318,-40.50704929,27.23869558,-8.599657831,-40.55555556,0.00682941,-0.00163626,0.013127428,-0.196343989,0.004483964,-0.012636407,0.98040999,0.003803644,0.026554719,0.395252748,-99.36728966,80.99933685,-37.33980732,9.972591712,-0.266612785,-0.02354572,Campus
72,9.905333223,-0.262138948,-0.039109873,-0.013170282,-5.01E-04,-0.014761154,-0.034397224,0.015228185,-0.014608442,45,1.5,1.058680892,3.378999949,0.125773713,191.7251282,154.5999908,-86.9105135,40.423931,-40.55621532,27.29164352,-7.979287844,-52,-0.022202158,0.006322228,0.004195088,-0.185288248,0.004584847,-0.012878441,0.982577849,0.004224021,0.027018535,0.372710251,-99.41596756,81.05033226,-36.71907131,9.905333223,-0.262138948,-0.039109873,Campus
73,9.919394039,-0.433408713,0.065381555,-0.013692171,-0.010464466,-8.72E-04,-0.034919113,0.005264851,-7.19E-04,45,1.5,1.068647981,3.364000082,0.117920287,194.2410126,154.5999908,-86.910514,40.4239304,-40.06882511,28.13478546,-8.667611809,-42.875,0.003314815,-0.017875494,0.001419885,-0.187528375,8.03E-04,-0.021131384,0.982026684,-0.006351884,0.041812257,0.37751193,-98.92747993,81.89457283,-37.4076395,9.919394039,-0.433408713,0.065381555,Campus
74,9.906491937,-0.317275505,0.071529135,0.006874997,0.003175813,0.005533209,-0.014351945,0.01890513,0.00568592,45,1.5,1.078706622,3.308000088,0.15194127,203.256485,154.5999908,-86.9105166,40.4239279,-40.28281338,27.50197157,-9.073383827,-54.77777778,5.30E-04,0.003280563,-0.001942429,-0.193327499,-5.10E-04,-0.016600789,0.980989837,-0.007423147,0.032377016,0.389281746,-99.14305397,81.26139236,-37.81243526,9.906491937,-0.317275505,0.071529135,Campus
75,9.951043805,-0.308738007,0.074604377,0.00520258,-2.99E-04,-0.001951153,-0.016024362,0.015429824,-0.001798441,45,1.5,1.037337303,3.26699996,0.128510982,192.3757935,154.5999908,-86.9105149,40.4239275,-40.31916924,27.54406162,-8.716899824,-55.625,0.018841855,0.003089578,0.004784142,-0.184728501,-6.03E-04,-0.016082947,0.982656924,-0.007129479,0.031390603,0.371751977,-99.17758026,81.30482414,-37.45753723,9.951043805,-0.308738007,0.074604377,Campus
76,9.961843361,-0.304835151,0.057070562,-0.001374406,0.002114471,0.00483979,-0.022601349,0.017843788,0.004992502,45,1.5,1.047326565,3.217000008,0.113440089,191.6151123,154.5999908,-86.9105149,40.4239271,-40.34881512,27.54320753,-8.661023884,-52,0.003226509,-0.002688101,-0.003600235,-0.183040682,-1.84E-04,-0.015467097,0.982983217,-0.006026274,0.030345422,0.368293349,-99.2089341,81.30335999,-37.40068516,9.961843361,-0.304835151,0.057070562,Campus
77,9.905492977,-0.279951537,0.057651345,-0.015720421,-0.00175841,-0.002947486,-0.036947364,0.013970907,-0.002794774,45,1.5,1.057321787,3.151000023,0.107407428,192.3527832,154.5999908,-86.9105152,40.4239268,-40.42177135,27.33800358,-8.814865818,-49.125,-0.030753089,0.001365469,-0.011268792,-0.186750095,-7.65E-04,-0.014547259,0.98229016,-0.006941214,0.028299319,0.375847781,-99.28115791,81.09730217,-37.55525917,9.905492977,-0.279951537,0.057651345,Campus
78,9.916568478,-0.29534517,0.10057986,-0.002661337,-0.004201799,0.011926348,-0.023888279,0.011527518,0.01207906,45,0.080622576,1.067254305,3.276000023,0.687125862,224.4503784,154.5999908,-86.9105261,40.423919,-40.42384537,27.3714315,-8.922225876,-50.33333333,0.001410845,-0.009518462,0.027948527,-0.188454201,-8.82E-04,-0.014837588,0.981966321,-0.007327742,0.028812706,0.379321554,-99.28347664,81.13231651,-37.66164318,9.916568478,-0.29534517,0.10057986,Campus
79,9.910679401,-0.16787219,0.130208464,-0.022125422,-0.004794854,0.005936486,-0.043352363,0.010934463,0.006089198,45,0.080622576,1.077304125,3.377000093,0.36590156,225.3447266,154.5999908,-86.9105274,40.4239182,-40.59549919,26.66639351,-9.615551786,-53.88888889,0.002302161,-2.31E-04,-0.019592333,-0.197350207,-0.005742722,-0.009788072,0.980260008,-0.015116916,0.016924474,0.397465645,-99.45525192,80.42471649,-38.35496929,9.910679401,-0.16787219,0.130208464,Campus
80,9.953506229,-0.136637723,0.172785608,0.007207108,-0.005269299,-0.003706597,-0.014019834,0.010460018,-0.003553886,45,0.080622576,1.033700228,3.52699995,0.137778059,225.6403351,154.5999908,-86.9105273,40.4239182,-40.61404343,26.54353945,-9.880047798,-53.75,0.024035491,0.019837513,0.005208998,-0.19880238,-0.006697652,-0.009397804,0.979965923,-0.016867471,0.015763252,0.400433193,-99.47367393,80.30332687,-38.6201973,9.953506229,-0.136637723,0.172785608,Campus
81,9.954044443,-0.203519344,0.223170976,-0.00547242,-0.002458215,-0.005509486,-0.026699363,0.013271102,-0.005356775,0,0.080622576,1.04379797,3.756000042,0.045239165,0,154.5999908,-86.9105272,40.4239183,-40.43433712,26.72287954,-10.0518238,-63,-0.00226369,-0.013779679,-0.010667852,-0.197065485,-0.009596502,-0.011620369,0.980272902,-0.023403194,0.01900087,0.396996919,-99.29335815,80.48413071,-38.79075306,9.954044443,-0.203519344,0.223170976,Campus
82,9.938684649,-0.309896667,0.182693751,0.048744722,0.018559675,-0.003386347,0.027517779,0.034288992,-0.003233636,0,0.080622576,1.053645849,3.779999971,0.014068443,0,154.5999908,-86.9105271,40.4239184,-40.13995113,27.41095947,-9.649101868,-62.375,-0.004161742,0.005308649,0.01664426,-0.190017138,-0.005275034,-0.017302967,0.981575135,-0.016929064,0.031932761,0.382703483,-98.99970413,81.17135597,-38.3898613,9.938684649,-0.309896667,0.182693751,Campus
83,9.882766974,-0.173793263,-0.008122239,0.018024442,-0.006574021,7.29E-04,-0.0032025,0.009155296,8.88E-04,0,0.080622576,1.063728094,3.900000095,0.004495482,0,154.5999908,-86.9105271,40.4239185,-40.93075523,26.88416351,-7.339275875,-58.88888889,-0.03266804,-0.033882049,-0.001460685,-0.155321004,0.001391013,-0.006771844,0.98776916,6.48E-04,0.013836173,0.311990138,-99.79099609,80.64358459,-36.07796131,9.882766974,-0.173793263,-0.008122239,Campus
84,9.939381609,-0.630261936,0.466452318,-0.03907495,-0.03504069,-0.018200876,-0.060301892,-0.019311373,-0.018048165,0,0.080622576,1.073660016,4.90500021,0.002730864,0,154.5999908,-86.9105271,40.4239185,-39.29339325,28.93559343,-10.09574379,-68,0.046791012,-0.001494479,0.05481974,-0.179171041,-0.014264487,-0.034656835,0.983002405,-0.040672579,0.062952222,0.36196238,-98.15424416,82.69525841,-38.83589348,9.939381609,-0.630261936,0.466452318,Campus
85,9.909180947,-0.449275681,0.288317706,0.007479914,0.017539619,-0.007122597,-0.013747029,0.033268936,-0.006969886,0,0.080622576,1.035724759,6.31400013,0.001186822,0,154.5999908,-86.9105271,40.4239185,-39.64926727,28.35243334,-10.42380177,-60.66666667,0.032570811,0.144013578,-0.143270193,-0.182148149,-0.016054453,-0.034002829,0.982481023,-0.044094179,0.061036699,0.367992705,-98.50865364,82.11270844,-39.16456127,9.909180947,-0.449275681,0.288317706,Campus
86,9.946835976,-0.132929428,0.236207023,-0.00128043,0.018301924,0.029978504,-0.022507372,0.034031241,0.030151773,0,0.080622576,1.045655608,6.916999817,0.005457401,0,154.5999908,-86.9105271,40.4239186,-40.94795712,26.0163776,-9.779885817,-68.11111111,-0.052547991,-0.230590376,-0.001884434,-0.180680196,-0.012794355,0.002790114,0.98337715,-0.024057733,-0.010144146,0.363299237,-99.8089299,79.77616425,-38.52015713,9.946835976,-0.132929428,0.236207023,Campus
87,9.956958965,-0.172451656,0.101999873,-0.020180199,0.006176674,-0.001310653,-0.041407141,0.021905991,-0.001157941,0,0.080622576,1.055683732,8.727999687,0.013748383,0,154.5999908,-86.9105271,40.4239188,-40.89659523,26.70091942,-8.903071861,-55.75,-0.018533114,-0.025549994,-0.037977565,-0.172633706,-0.00564075,-0.008450322,0.984906464,-0.014024951,0.014724878,0.347138489,-99.7573243,80.46070671,-37.64309937,9.956958965,-0.172451656,0.101999873,Campus
88,9.905379749,-0.203238921,0.124328045,0.015592914,-0.005162549,0.002710264,-0.005634028,0.010566768,0.002862976,0,0.080622576,1.065667033,8.928999901,0.008830645,0,154.5999908,-86.9105271,40.4239188,-40.94551735,26.53597546,-9.065819826,-62.55555556,-0.023584653,-0.029774399,0.010563182,-0.180820984,-0.004056323,-0.00962598,0.983456547,-0.011459203,0.01747356,0.363766004,-99.80563606,80.29637238,-37.80548138,9.905379749,-0.203238921,0.124328045,Campus
89,9.903399273,-0.192773227,0.116859185,0.008310192,0.005227785,-0.003528681,-0.012916751,0.020957102,-0.003375969,0,0.080622576,1.075587034,9.93500042,0.009116166,0,154.5999908,-86.9105271,40.4239189,-40.93990509,26.56110754,-8.768627853,-66.25,-0.004375254,-4.23E-04,0.012698192,-0.174580672,-0.003480043,-0.010477139,0.984579671,-0.010512046,0.019416134,0.351083585,-99.79978012,80.32089516,-37.50877735,9.903399273,-0.192773227,0.116859185,Campus
90,9.950320005,-0.215178603,0.06694439,-0.007797198,0.002381118,-0.001393681,-0.029024141,0.018110435,-0.001240969,0,0.080622576,1.035671115,9.93500042,0.004987633,0,154.5999908,-86.9105271,40.4239189,-40.94929913,26.72153744,-8.540975838,-64.88888889,0.018827003,-0.005737362,-0.002829028,-0.173146592,-0.001656208,-0.011031316,0.984830127,-0.007085272,0.021157964,0.348145037,-99.80880836,80.48193459,-37.28185726,9.950320005,-0.215178603,0.06694439,Campus
91,9.952864508,-0.221193803,0.069725807,-0.009872893,0.005500591,-0.030560155,-0.031099835,0.021229908,-0.030407443,0,0.080622576,1.045668364,9.93500042,0.002067299,0,154.5999908,-86.9105271,40.4239189,-40.57732117,27.37801945,-8.782779818,-63.125,0.009126561,0.097880641,0.015465162,-0.174710717,-9.12E-06,-0.016258683,0.984478574,-0.005694647,0.032018647,0.351364685,-99.43744011,81.13829491,-37.52317345,9.952864508,-0.221193803,0.069725807,Campus
92,9.904372058,-0.011017439,0.141734088,-0.034757505,-0.05456408,0.022921599,-0.055984448,-0.038834763,0.023090619,0,0.080622576,1.055570245,9.93500042,5.03E-04,0,154.5999908,-86.9105271,40.4239189,-39.05085712,29.79618149,-9.642513809,-60,-0.010300622,0.140451487,-0.020411333,-0.165911483,-0.006277694,-0.009103178,0.985854361,-0.015294062,0.015811757,0.333238017,-97.91060997,83.55657776,-38.38266335,9.904372058,-0.011017439,0.141734088,Campus
93,10.10036862,-0.181720941,0.026745022,0.298063813,0.047631259,0.003208431,0.276802767,0.063381333,0.003404141,0,0.036055513,1.06572485,9.93500042,1.36E-04,0,154.5999908,-86.9105271,40.4239189,-35.94095543,29.07833338,-12.22513178,-60.25,0.088294839,-0.216833186,-0.379867461,-0.069589213,-0.0211201,9.55E-04,0.995256154,-0.042255029,-0.005078766,0.139434146,-94.79948799,82.83836449,-40.9649152,10.10036862,-0.181720941,0.026745022,Campus
94,9.939483244,-0.165816222,0.143113445,0.022408605,-0.03398505,0.028306544,0.001174249,-0.018237942,0.028488907,49.77738571,0.937443316,1.075575352,9.93500042,0.827972651,18.45196724,154.5999908,-86.9105216,40.4239278,-42.31813911,27.29359545,-2.785259932,-66.44444444,-0.019544069,-0.333042619,-0.237393721,0.003758261,-0.019024218,0.0083029,0.999233371,-0.037842538,-0.016214672,-0.007800419,-101.1774041,81.05374802,-31.52467739,9.939483244,-0.165816222,0.143113445,Campus
95,10.09071604,-0.43817113,-0.095744846,0.074088724,2.82E-04,-0.020815795,0.052861782,0.016024462,-0.020633716,30.78642845,0.826801062,1.035724163,9.93500042,1.223523378,19.67086601,154.3999939,-86.9105152,40.423937,-45.16171516,26.68054554,-1.370669973,-65.25,0.097542401,-0.636391233,-0.259664857,0.008498759,-0.008088986,0.009900621,0.999518781,-0.015959564,-0.01947464,-0.017113522,-104.0211022,80.43984467,-30.11020941,10.09071604,-0.43817113,-0.095744846,Campus
96,9.939689437,-0.454830865,0.215052033,-0.121288765,0.006769729,0.009471098,-0.14252312,0.02251684,0.009665323,36.36658478,0.934933126,1.045713305,9.93500042,1.270151734,13.20701599,154.3999939,-86.9105103,40.4239478,-44.87952908,26.00466549,-1.715075976,-66.77777778,-0.02414033,-0.37181214,0.011950459,0.011466692,-0.010626135,-0.004212966,0.999301101,-0.020368958,0.008330777,-0.02300403,-103.7401358,79.76420853,-30.45583542,9.939689437,-0.454830865,0.215052033,Campus
97,9.859436905,-0.399456185,0.389489961,0.086933055,-0.007546633,-0.034972488,0.065698699,0.00820196,-0.034791606,28.0203228,0.826801062,1.055585861,8.928999901,1.522448421,6.853553772,154.3999939,-86.9105079,40.4239625,-44.26257526,25.25668344,-4.705295913,-69.44444444,-0.083506505,-0.43579903,-0.096234014,-0.008265438,-0.024653915,0.002124414,0.99899097,-0.04881432,-0.003694368,0.016619667,-103.1225717,79.0167144,-33.44459133,9.859436905,-0.399456185,0.389489961,Campus
98,9.880905559,-0.456134717,0.137006518,-0.015317144,0.018275008,0.020252848,-0.036544087,0.034023598,0.02045004,26.81337166,0.826801062,1.065682292,7.922999859,1.631610036,6.9836483,154.3999939,-86.9105059,40.4239784,-44.3168652,27.39290348,-2.997295936,-69.25,-0.062420553,-0.207788739,-0.070182819,0.004648464,-0.010650992,-0.012397798,0.999595439,-0.020841495,0.024939056,-0.009092094,-103.1774719,81.15342255,-31.73707943,9.880905559,-0.456134717,0.137006518,Campus
99,9.899481843,-0.224277759,-0.079413255,0.053847965,-0.011769188,0.016314961,0.032618057,0.003960129,0.016513634,28.86012459,0.870919049,1.075705886,6.31400013,1.572064638,11.24577522,154.3999939,-86.9105028,40.4239942,-45.14073124,25.42577543,-1.937725969,-67.77777778,-0.023565297,-0.11033111,-0.190815717,0.014503131,-0.005966311,-0.00546724,0.999345326,-0.011246262,0.011433513,-0.028901806,-104.0012162,79.18556206,-30.67811943,9.899481843,-0.224277759,-0.079413255,Campus
100,9.945174873,-0.031031919,0.258798723,0.011441526,-0.012457132,0.037498905,-0.009785416,0.00328108,0.037699062,30.36495209,0.832165837,1.035313249,5.910999775,1.451377153,9.302286148,154.3999939,-86.9104998,40.4240084,-45.15390694,24.15331543,-1.825973952,-68.625,0.041222494,-0.05027774,-0.126995694,0.029680779,-0.018829717,0.002296072,0.998992481,-0.037437486,-0.00298513,-0.059336358,-104.0135381,77.91371254,-30.56514742,9.945174873,-0.031031919,0.258798723,Campus
101,10.02448941,-0.108975067,0.169048275,-0.021708801,0.020232092,-0.01525932,-0.042937226,0.035974753,-0.015059165,32.23770905,0.832165837,1.045343161,4.90500021,1.354725122,2.142384529,154.3999939,-86.9104996,40.4240209,-44.81669922,23.2152577,-0.232287996,-68.33333333,0.100212412,-0.106786573,0.086700456,0.031648998,-0.005052257,-1.58E-04,0.999058152,-0.009460181,8.21E-04,-0.063288356,-103.6766962,76.97614227,-28.97231552,10.02448941,-0.108975067,0.169048275,Campus
102,9.979563042,-0.104924115,0.144562498,0.045328722,-0.034281579,-0.043441323,0.02410178,-0.018538916,-0.043257475,43.62570953,0.984784245,1.055276752,3.900000095,1.15024507,6.810133457,154.3999939,-86.9104999,40.4240315,-43.96977516,23.35885147,-1.454971965,-68.375,0.057575291,-0.075685869,0.029898374,0.020945307,-0.005869293,-0.001389109,0.999305711,-0.011244612,0.003572979,-0.041784512,-102.8298943,77.11851639,-30.19609745,9.979563042,-0.104924115,0.144562498,Campus
103,9.931352287,-0.239119643,0.128323821,0.039232109,-0.068431204,-0.0261241,0.018005167,-0.052694471,-0.025943217,40.00884628,1.010197997,1.065260649,3.90899992,1.245787024,6.132932186,154.3999939,-86.9104991,40.4240421,-42.99292114,24.5762895,-1.357859973,-69.88888889,-0.006317088,0.060173458,0.064130086,0.044705737,-0.003820471,-0.014553387,0.998419286,-0.006017933,0.029694355,-0.089384382,-101.852674,78.33680794,-30.09837545,9.931352287,-0.239119643,0.128323821,Campus
104,9.838894724,-0.713247002,0.313796621,0.011137585,-0.003893411,0.016943597,-0.010093805,0.011855183,0.017137822,36.1390686,0.940478623,1.075267076,3.90899992,1.281976819,0.826639593,154.3999939,-86.9105001,40.4240548,-41.03103928,27.48891754,-4.281711912,-67,-0.076765662,-0.176883689,-0.202354304,0.04422938,-0.027168039,-0.02528907,0.998095765,-0.052065904,0.053144258,-0.087283515,-99.89079185,81.25053452,-33.02149536,9.838894724,-0.713247002,0.313796621,Campus
105,9.890624972,-0.281557398,0.502039747,-0.075016743,0.077836037,0.033608346,-0.096243686,0.093590318,0.033791894,30.51141548,0.859825552,1.033847094,3.911000013,1.433544874,358.3127441,154.5999908,-86.9105025,40.4240694,-42.96339714,26.63760141,-1.415687977,-67.88888889,-0.083820297,0.041391038,0.314531083,0.043495711,-0.010671948,-0.016126889,0.998605863,-0.019729689,0.033098442,-0.086907625,-101.8214421,80.39799866,-30.15595945,9.890624972,-0.281557398,0.502039747,Campus
106,9.949423346,-0.229249251,0.247398696,-0.093588621,0.008964035,-0.023941654,-0.114815563,0.024711144,-0.023745947,28.00510597,0.832165837,1.043807626,3.90899992,1.550767779,357.1418762,154.5999908,-86.9105053,40.4240858,-45.28420311,25.8122716,-1.64480397,-66.22222222,0.010770094,-0.162796447,0.063271772,0.005560685,-0.009541663,-0.003217383,0.99956229,-0.018533968,0.00661371,-0.010949087,-104.1443222,79.57193665,-30.38507532,9.949423346,-0.229249251,0.247398696,Campus
107,10.03224579,-0.234476294,0.275255914,-0.001060087,-0.039725827,-0.047948546,-0.022287029,-0.023981685,-0.047770627,26.22894669,0.826801062,1.05386138,3.911000013,1.670392871,359.6222534,154.5999908,-86.9105077,40.4241038,-46.96877892,23.92761543,-3.282775942,-66.375,0.096232623,-0.093702392,0.039225548,-0.024983195,-0.011723127,-0.007320591,0.999362761,-0.023787794,0.014118764,0.050321198,-105.8288979,77.68740242,-32.02316929,10.03224579,-0.234476294,0.275255914,Campus
108,9.819392024,0.012814961,0.235788855,0.048955258,0.022639898,0.069179936,0.02771942,0.038369214,0.069383055,27.9520092,0.826801062,1.063770413,3.900000095,1.584349275,7.64068222,154.5999908,-86.9105071,40.4241218,-44.89380325,22.44995153,-3.00095592,-67.66666667,-0.119316976,-0.019229719,-0.031735044,0.001511782,-0.01355087,0.001654058,0.999432369,-0.02691827,-0.003232096,-0.003070608,-103.7541658,76.21059273,-31.74159342,9.819392024,0.012814961,0.235788855,Campus
109,9.859948056,0.132464798,0.246507199,0.023234436,-0.003264771,-0.017477349,0.002004528,0.01247789,-0.017278675,28.74821854,0.826801062,1.073742032,3.881000042,1.539204121,8.800132751,154.5999908,-86.9105044,40.4241381,-45.0610651,22.69761152,-3.133935935,-62,-0.060781266,-0.038826663,-0.103228136,1.32E-04,-0.017784392,0.008696404,0.99951449,-0.035273644,-0.017293422,-5.80E-04,-103.92033,76.45678825,-31.87347548,9.859948056,0.132464798,0.246507199,Campus
110,9.772618436,-0.101784122,-0.09613855,-0.018412893,0.085029345,-0.016030291,-0.039639835,0.100794247,-0.015837548,28.41220284,0.826801062,1.033963323,3.878000021,1.548649073,6.364918709,154.5999908,-86.9105024,40.4241536,-46.08086315,25.02000353,-0.441029985,-51.11111111,-0.131184379,-0.016357359,0.080541396,0.004646833,0.008920926,-0.004109864,0.999638408,0.018250283,0.008021477,-0.009595475,-104.9415919,78.78003464,-29.18093546,9.772618436,-0.101784122,-0.09613855,Campus
111,9.928898473,0.226208853,-0.297656678,-0.129800595,-0.021281801,0.118972884,-0.151027538,-0.005539138,0.119186383,27.9162426,0.870919049,1.043754816,3.881000042,1.600405812,6.052731991,154.5999908,-86.9105006,40.4241688,-50.05891697,18.96538764,1.955171969,-52.125,0.037460818,-0.170637025,0.176887517,-0.029488888,0.022414059,0.020056535,0.998344571,0.047440377,-0.03863456,0.060230239,-107.2628854,73.68726631,-27.9811875,9.928898473,0.226208853,-0.297656678,Campus
112,9.774750214,0.191385159,-0.25315715,-0.050947924,-0.041801523,-0.106293354,-0.072174866,-0.026058861,-0.106112473,27.80620956,0.826801062,1.053806305,3.881000042,1.583695292,7.729239464,154.5999908,-86.9104985,40.4241846,-56.72328903,13.10035978,6.362665861,-63.33333333,-0.135342644,-0.008962004,0.090694332,-0.058879906,0.016403984,0.010825523,0.997680067,0.034456467,-0.019619891,0.118327054,-104.5437498,73.27978653,-30.35786934,9.774750214,0.191385159,-0.25315715,Campus
113,9.99450366,-0.228061554,-0.316642454,-0.025038807,-0.025385746,0.015354209,-0.046270198,-0.009643084,0.015546951,27.5055275,0.832165837,1.063864827,3.878000021,1.597812057,10.56588936,154.5999908,-86.9104948,40.4241996,-55.79816296,17.28178766,3.828847947,-57.11111111,0.040178234,-0.132545336,-0.214810969,-0.074206678,0.00526957,-0.004261938,0.996861913,0.010322311,0.009300498,0.148443219,-103.6178923,77.46158066,-32.89144325,9.99450366,-0.228061554,-0.316642454,Campus
114,9.876468408,0.057837196,0.063168775,0.075538973,-0.023594717,-0.00757332,0.05431203,-0.00785502,-0.007385024,28.21564674,0.924175322,1.07379818,3.900000095,1.647989035,18.60064507,154.5999908,-86.9104883,40.4242137,-57.38989677,17.23859959,3.778095922,-59.25,-0.045788459,0.022402917,-0.051412791,-0.047197179,-0.005808197,0.001218628,0.998519303,-0.011146059,-0.002740034,0.094473003,-105.2088938,77.41814835,-32.94170731,9.876468408,0.057837196,0.063168775,Campus
115,10.00174019,-0.088177254,-0.177728061,0.067281302,0.016821794,0.026971256,0.046048486,0.032559922,0.027163613,27.75268173,0.851469338,1.033752918,3.900000095,1.606976748,16.38168716,154.5999908,-86.9104801,40.424228,-58.53364658,16.68532967,5.72838788,-59.77777778,0.032131305,-0.008455344,-0.151978348,-0.014675356,8.68E-04,-0.003002666,0.999538689,0.002105051,0.00610952,0.029407017,-106.3525219,76.86585442,-30.99141548,10.00174019,-0.088177254,-0.177728061,Campus
116,9.964477224,0.152034256,-0.057096698,-0.010580112,0.00954523,-0.021664321,-0.031811502,0.025293821,-0.021470094,28.60632324,0.918368101,1.043651938,3.900000095,1.633728623,13.53503036,154.5999908,-86.9104734,40.4242427,-60.8906868,15.55792773,8.929789867,-58.25,0.042488418,-0.049146627,0.023146282,0.016198958,0.003855708,0.010180025,0.99929611,0.008094641,-0.020297865,-0.032330437,-107.8536099,75.49323288,-27.62641157,9.964477224,0.152034256,-0.057096698,Campus
117,9.804532718,0.461678296,0.090207089,-0.021791829,-0.035942133,0.04417671,-0.043020254,-0.020202439,0.044379832,37.44779205,0.904433548,1.053777099,3.900000095,1.251037478,3.155354977,154.5999908,-86.9104698,40.4242556,-62.92308475,17.02888168,4.991019889,-55.22222222,-0.109963486,-0.031708993,0.06195806,0.018708215,-0.001167421,0.024835437,0.998947139,-0.002839416,-0.049671379,-0.037814918,-108.223392,76.48850868,-31.24846941,9.804532718,0.461678296,0.090207089,Campus
118,10.02162913,0.218008214,0.012330004,-0.04091342,0.006164812,-0.035328324,-0.062140362,0.021914887,-0.035122235,30.04518509,0.870919049,1.063681245,3.900000095,1.451387644,1.262835622,154.5999908,-86.9104692,40.4242681,-62.66798275,16.28480379,2.688757941,-50.125,0.100241689,0.02679078,0.010213205,-0.005620416,-7.42E-04,0.009685983,0.999247565,-2.29E-04,-0.019379791,0.0111026,-107.9679238,75.74455231,-33.55158533,10.02162913,0.218008214,0.012330004,Campus
119,9.830813065,0.301762808,-0.009036976,0.006443549,0.033065816,0.026468071,-0.014790808,0.048812923,0.02668009,32.18444061,0.884816349,1.07374084,3.900000095,1.400391698,1.898078203,154.5999908,-86.9104682,40.4242814,-62.0729887,15.04613762,2.795263928,-60.66666667,-0.08411213,-0.035132738,0.061680788,-0.002982886,0.003101285,0.017175814,0.999222192,0.00712928,-0.033964265,0.006273061,-107.372686,74.50625267,-33.4449575,9.830813065,0.301762808,-0.009036976,Campus
120,9.92900604,0.213798126,-0.158855241,0.028204241,-0.030426715,-0.009601569,0.006974334,-0.014684056,-0.009411792,28.35754395,0.832165837,1.033164382,3.900000095,1.528189778,2.87339735,154.5999908,-86.9104669,40.4242958,-61.63610676,16.06691171,3.835923908,-51.75,0.065802773,-0.055608275,0.039117115,0.011237185,0.009586591,0.012967591,0.999178862,0.01995847,-0.025722249,-0.021906293,-106.9356818,75.52739235,-32.4041754,9.92900604,0.213798126,-0.158855241,Campus
121,9.962014726,0.219021678,0.014987085,0.044439138,0.018998536,-0.028614931,0.023212196,0.034747129,-0.028416258,30.35814857,0.832165837,1.043147087,3.900000095,1.453851581,4.694621563,154.5999908,-86.9104656,40.4243103,-61.47323689,16.30712972,3.694281924,-47.77777778,0.020160763,-0.065307439,0.051871585,0.025527282,0.002136595,0.014736683,0.999170265,0.003999325,-0.029376491,-0.050873509,-106.7731781,75.76712303,-32.54679325,9.962014726,0.219021678,0.014987085,Campus
122,9.950692357,0.249309467,-0.123009667,-0.040367811,-0.027508883,0.035458793,-0.061594753,-0.011760293,0.035657467,33.79714203,0.832165837,1.053085446,3.900000095,1.297547102,0.6793347,154.5999908,-86.9104652,40.4243228,-61.86229473,16.75523563,4.162151937,-58.22222222,0.046874991,-0.050791001,-0.010658978,0.031657807,0.005383102,0.014490801,0.998856739,0.010716584,-0.029065874,-0.063045727,-107.162358,76.2152285,-32.07782534,9.950692357,0.249309467,-0.123009667,Campus
123,9.931247753,0.282062681,-0.114271802,0.008594857,0.003424895,0.004050572,-0.012632086,0.019167558,0.004261106,35.38129425,0.981835008,1.063058257,3.900000095,1.378137827,8.554523468,154.5999908,-86.9104638,40.4243352,-62.02650673,16.43034968,3.409899936,-59,-0.012092363,0.008967805,-0.031459345,0.02941105,0.004248013,0.01395453,0.998988104,0.008455849,-0.027876617,-0.058568656,-107.3270583,75.88997673,-32.82958929,9.931247753,0.282062681,-0.114271802,Campus
124,9.884965211,0.427841914,0.112064829,0.061151447,0.007718618,-0.038068238,0.039924504,0.023468692,-0.037871047,29.69250488,0.832165837,1.07306385,3.900000095,1.455946088,3.689618826,154.5999908,-86.9104615,40.4243484,-62.52451096,15.47252772,3.272039931,-60.88888889,-0.05098667,-0.014208102,0.173845965,0.049431635,0.004330454,0.022450586,0.998152459,0.006946186,-0.045144185,-0.098705075,-107.8246958,74.93142326,-32.96732742,9.884965211,0.427841914,0.112064829,Campus
125,9.859480515,0.474960772,0.114977451,-0.029049018,-0.011429892,0.00628468,-0.050277428,0.004315578,0.006463822,33.45164871,0.898721337,1.083037496,3.881000042,1.367997766,359.6983643,154.5999908,-86.9104619,40.4243617,-62.0839687,15.2058357,1.412759967,-60.875,-0.070547957,0.0654367,-0.040914694,0.045654271,-0.007214655,0.021559804,0.998322098,-0.01588538,-0.041949734,-0.091437086,-107.3837878,74.66534058,-34.82709507,9.859480515,0.474960772,0.114977451,Campus
126,9.953294249,0.506270742,0.015213589,0.028782471,0.024537674,-1.78E-05,0.007555528,0.040280337,1.79E-04,28.31855392,0.826801062,1.041524053,3.878000021,1.523855805,0.842633188,154.5999908,-86.9104622,40.4243761,-62.15655884,12.75058578,4.139215933,-62.77777778,0.038911208,-0.074307279,0.054446897,0.063361809,0.003756976,0.029220009,0.997197767,0.003948883,-0.058488725,-0.126777154,-107.4567438,72.21057861,-32.10088337,9.953294249,0.506270742,0.015213589,Campus
127,9.89142641,0.670353331,0.121554812,-0.013238482,-0.023974272,0.020608682,-0.034468389,-0.008231612,0.020799942,28.17476273,0.826801062,1.051397085,3.881000042,1.555191398,359.2422485,154.5999908,-86.9104625,40.4243915,-62.47973679,12.00370172,6.804671903,-59.625,-0.025664996,0.004400332,0.095557122,0.078910971,0.001258146,0.033686841,0.995812475,-0.002572691,-0.067020022,-0.158220964,-107.7793119,71.46418266,-29.43615944,9.89142641,0.670353331,0.121554812,Campus
128,9.920616553,0.573748919,-0.039597727,0.003178778,-0.001165352,-0.008972932,-0.018052613,0.014580272,-0.008771291,27.15213394,0.826801062,1.061454535,3.878000021,1.61105752,359.0203857,154.5999908,-86.910464,40.4244077,-62.29917679,12.47169374,7.467009845,-65.22222222,0.00897446,-0.009158027,0.040785923,0.06885674,0.005750669,0.029169055,0.996753333,0.008132326,-0.058727235,-0.137549245,-107.5992399,71.93156471,-28.77357742,9.920616553,0.573748919,-0.039597727,Campus
129,9.768660693,0.323777359,0.099604148,0.023225539,-0.029655744,-0.087647684,0.001992666,-0.013911601,-0.087471252,28.80097771,0.832165837,1.071457982,3.878000021,1.534148574,1.575536013,154.5999908,-86.9104643,40.4244231,-61.66758293,14.05866972,6.041195879,-63.875,-0.146474778,-0.012357574,-0.153809632,0.078157107,-0.011500383,0.018067059,0.996381084,-0.025495472,-0.033919586,-0.156863672,-106.9675236,73.5179303,-30.19853741,9.768660693,0.323777359,0.099604148,Campus
130,10.10316442,-0.029665821,-0.036039017,-0.081881704,0.04337312,0.023977237,-0.103108646,0.059123195,0.024177393,28.74034691,0.870919049,1.031932235,3.900000095,1.556019187,0.214864463,154.5999908,-86.9104641,40.4244377,-60.72757286,17.21249168,6.220657868,-57.44444444,0.19369361,-0.002953571,0.036863489,0.069700414,0.00301839,-0.001944218,0.996988203,0.006727007,0.003841633,-0.139687288,-106.0270257,76.67199623,-30.01931952,10.10316442,-0.029665821,-0.036039017,Campus
131,9.973093121,0.316537913,0.094992735,-6.49E-04,-0.040959384,0.046015184,-0.021883751,-0.025218205,0.046219787,28.39681625,0.832165837,1.041897655,3.900000095,1.551167965,359.1622009,154.5999908,-86.9104644,40.4244523,-61.63720467,14.56911779,5.592967885,-49.5,0.044172819,-0.046687057,0.101308939,0.059842695,0.001080134,0.01803252,0.997531934,6.50E-04,-0.035858158,-0.119845511,-106.9361703,74.02850075,-30.64786327,9.973093121,0.316537913,0.094992735,Campus
132,9.970241505,0.40324579,0.162717748,0.028195344,0.016424675,-0.01770271,0.006962472,0.032170301,-0.017520345,29.45738602,0.832165837,1.051854491,3.900000095,1.490998268,358.1618958,154.5999908,-86.910465,40.4244663,-62.14997078,13.91788171,5.39996388,-49.44444444,0.061114052,-0.070288252,-0.005585436,0.071607494,-0.006798775,0.024647946,0.996729105,-0.016720251,-0.04775022,-0.143686368,-107.4496681,73.37836243,-30.83964731,9.970241505,0.40324579,0.162717748,Campus
133,9.887323208,0.278366003,-0.138917293,-0.008265712,-0.007131493,-0.001678348,-0.029498585,0.008611167,-0.001482638,29.34022141,0.826801062,1.061859488,3.900000095,1.490098715,359.7543335,154.5999908,-86.9104653,40.4244798,-61.49690483,14.5748517,6.220169883,-45.66666667,-0.03341941,-0.03334685,-0.139559929,0.071019551,0.001113796,0.015982497,0.996891916,6.73E-04,-0.031687275,-0.142010952,-106.7967238,74.03350266,-30.01919743,9.887323208,0.278366003,-0.138917293,Campus
134,10.11487949,0.208611152,-0.157966949,-0.014510588,0.053644843,-0.021000098,-0.03573753,0.069394918,-0.020808839,30.3955822,0.845990539,1.071870923,3.900000095,1.447663426,1.692415118,154.5999908,-86.9104647,40.4244929,-60.91215885,15.49009567,8.085061851,-46.375,0.186401011,0.024376643,0.258799262,0.078441491,0.021727653,0.008459574,0.996277568,0.042486613,-0.020080028,-0.156653059,-106.2121001,74.94923462,-28.15528147,10.11487949,0.208611152,-0.157966949,Campus
135,10.01585035,0.122858667,-0.301765717,-0.088346722,-0.022096224,-0.021414896,-0.109576601,-0.006344881,-0.021229881,29.17248154,0.851469338,1.082016587,3.900000095,1.508253455,0.230814725,154.5999908,-86.9104633,40.4245056,-60.70866268,16.83636564,6.115737884,-39.11111111,0.075240974,-0.021660647,0.01213762,0.051312996,0.015329079,0.006546218,0.997997052,0.030613152,-0.014370053,-0.10220228,-106.0079939,76.29672401,-30.12411736,10.01585035,0.122858667,-0.301765717,Campus
136,10.03244909,0.076047617,0.017130165,-0.068244391,-0.052986552,0.015982848,-0.089480229,-0.037245375,0.016181521,30.11795425,0.870919049,1.040625811,3.900000095,1.484654665,0.03280754,154.5999908,-86.9104633,40.4245188,-62.24476475,17.53017956,3.886187947,-41.75,0.11048379,-0.103621868,0.066891488,0.026540885,0.00248491,0.009114883,0.999070378,0.0050523,-0.018105961,-0.053200917,-107.5504398,76.96089218,-32.36159727,10.03244909,0.076047617,0.017130165,Campus
137,10.03357,0.479441511,0.1046947,0.047386625,0.032449036,0.00926946,0.026153752,0.048199111,0.009447374,30.88926506,0.826801062,1.050672531,3.900000095,1.420689583,4.31448698,154.5999908,-86.9104623,40.4245322,-63.19538868,16.09460572,4.14519393,-21.33333333,0.11494118,0.099009568,-0.095824499,0.027693108,-0.009890859,0.019612644,0.998687247,-0.020249524,-0.038283821,-0.055671236,-108.6750359,74.59494629,-32.33512331,10.03357,0.479441511,0.1046947,Campus
138,9.887819795,0.437215743,0.223525636,-0.237665545,-0.05649744,0.030512708,-0.258892488,-0.040768123,0.030714348,30.35315895,0.882326484,1.060706615,3.900000095,1.462110996,5.790363789,154.5999908,-86.9104595,40.4245458,-62.13179268,14.09148776,4.532909909,-24.75,-0.02290379,0.067367971,0.201846963,-0.003333032,-0.001884201,0.018443445,0.998661305,-0.002167738,-0.037315174,0.006756759,-107.6115615,72.59219467,-31.94691921,9.887819795,0.437215743,0.223525636,Campus
139,10.14185386,-0.270882622,-0.127563,0.482401797,-0.162301524,-0.139658658,0.461112582,-0.146548483,-0.139476293,30.17160225,0.868389308,1.070722699,3.900000095,1.469134927,9.437054634,154.5999908,-86.9104557,40.4245598,-59.35934284,17.52224961,-0.995275983,-13.77777778,0.278015419,-0.059489081,-0.806937142,-0.02629655,-0.036192274,-0.009569223,0.995043108,-0.06873668,0.021199448,0.054859551,-104.8456995,76.00050873,-37.45668343,10.14185386,-0.270882622,-0.127563,Campus
140,9.680773708,-0.406158638,0.468455432,0.292595837,0.108787153,0.053867238,0.271334794,0.124546121,0.054071844,32.09855652,0.912633538,1.080611467,3.900000095,1.43720293,9.918451309,154.5999908,-86.9104516,40.424573,-58.40115475,22.52241949,8.644553796,-9,-0.240117906,-0.037795656,0.02056753,0.217863028,-0.026025843,-0.013062876,0.973637985,-0.044915909,0.03570336,-0.439362184,-105.0150357,80.51402008,-26.7833914,9.680773708,-0.406158638,0.468455432,Campus
141,10.03891896,-0.284031537,0.002453804,-0.034757506,0.067273261,0.02260135,-0.055984448,0.083021852,0.02280447,32.9000206,0.967987597,1.331753969,3.900000095,1.492782831,1.526621222,154.6999969,-86.9104507,40.4245864,-57.58046089,16.72766369,16.5937077,-21.33333333,0.079939203,-0.225817035,0.20574349,0.258802141,0.008805309,-0.005333493,0.965708238,0.01984054,0.005843683,-0.523764675,-105.0405338,74.74720261,-18.32586359,10.03891896,-0.284031537,0.002453804,Campus
142,9.892550237,0.19823548,-0.004771126,-0.191620708,0.028843258,0.089462435,-0.21284765,0.044584438,0.089667041,26.67848015,0.854400396,1.341605067,3.900000095,1.648064017,341.762207,154.6999969,-86.9104572,40.4246009,-53.08415092,5.684345852,20.94825354,-15,-0.01106871,-0.16850299,0.464293169,0.244380227,0.026929137,0.011829785,0.968852752,0.046901322,-0.035899983,-0.493284865,-100.5438583,63.704739,-13.97131773,9.892550237,0.19823548,-0.004771126,Campus
143,9.939910153,0.347984365,0.219123315,-0.581151481,-0.034032495,0.011938211,-0.602378428,-0.018286869,0.012133917,35.04345322,0.965660393,1.351591587,3.900000095,1.462614179,345.1835327,154.6999969,-86.9104675,40.4246145,-60.4641748,3.806277916,17.04108164,-38.77777778,0.034284518,-0.255080635,0.951214417,0.101207686,0.03946967,0.026408486,0.99133884,0.07398979,-0.061684937,-0.201277757,-98.62357811,62.78973881,-17.23335366,9.939910153,0.347984365,0.219123315,Campus
144,9.828324387,0.025415037,0.143807478,-0.490781673,-0.088581748,0.002105347,-0.512008616,-0.072828709,0.002293642,29.55835342,0.901387811,1.361558199,3.900000095,1.548529029,2.319531202,154.6999969,-86.9104706,40.4246281,-67.32386871,15.9979817,-2.847601934,-38,-0.068136572,-0.074436795,0.141906171,-0.19284211,-0.001855184,0.003286229,0.979385062,-0.00204929,-0.008920941,0.38868198,-99.88835197,72.72175865,-38.55248735,9.828324387,0.025415037,0.143807478,Campus
145,10.01181677,-0.658769631,-0.246536237,0.28806147,-0.035652336,-0.054165706,0.26682278,-0.019890715,-0.053985095,28.55231094,0.898721337,1.371619225,3.900000095,1.583700895,27.7711277,154.6999969,-86.910463,40.4246404,-67.14477272,23.56210358,-21.78175772,-44.375,0.070605737,-0.336368015,-0.848621418,-0.245966402,-0.025041494,-0.022479573,0.967509059,-0.059155148,0.031992822,0.498768659,-100.2050642,80.44240616,-57.12161903,10.01181677,-0.658769631,-0.246536237,Campus
146,10.01396268,-0.460627067,-0.272793395,0.489301998,-0.034471357,0.042278934,0.46802761,-0.018721282,0.042477607,34.91017914,0.845990539,1.09562552,3.900000095,1.277257323,36.28207779,155,-86.91045,40.4246479,-71.36316635,14.95841979,-13.39938166,-46.44444444,0.090670664,0.011230286,-0.588351704,-0.043988235,-0.014801786,-0.02387508,0.995651484,-0.031814477,0.047436669,0.088996917,-103.49089,73.80853462,-50.32707314,10.01396268,-0.460627067,-0.272793395,Campus
147,9.869742937,-0.305532087,-0.005671339,0.113220243,0.029685398,-0.039444128,0.091982922,0.045441402,-0.039258798,30.1355629,0.832165837,1.105622172,3.900000095,1.41407001,21.18214607,155,-86.9104403,40.4246561,-74.12439201,20.75268745,3.333283929,-51.25,-0.0588915,0.01293588,0.054305809,0.095820601,9.78E-04,-0.016158194,0.994448493,0.006030625,0.031996221,-0.192241816,-105.4703395,78.62375221,-34.14901953,9.869742937,-0.305532087,-0.005671339,Campus
148,9.894164891,-0.468165619,0.031678766,0.025682271,0.005856423,0.016231933,0.004447917,0.021606498,0.016451361,32.8568306,0.879204214,1.115553975,3.900000095,1.364898086,4.753327847,155,-86.9104368,40.4246671,-76.76727867,23.03811344,8.661511869,-45.88888889,-0.040094954,-0.226894286,0.013591038,0.102967228,-0.002280542,-0.011744236,0.994127084,-0.001843605,0.024170365,-0.206543308,-108.0272158,80.45741234,-28.53848347,9.894164891,-0.468165619,0.031678766,Campus
149,9.904110696,0.039960716,0.097286825,0.105512004,-0.055797636,0.063640795,0.0842732,-0.040054974,0.063840952,26.31168938,0.920869172,1.125579119,3.900000095,1.731073976,4.996640682,155,-86.9104356,40.4246809,-81.29225883,15.24414367,11.32403978,-58.375,-0.029433593,-0.119228984,-0.162381557,0.158697146,-0.011421899,0.010436353,0.986197778,-0.026146289,-0.015968216,-0.319446549,-112.5517077,72.66380852,-25.87632141,9.904110696,0.039960716,0.097286825,Campus
150,9.803299418,0.267558989,0.20699354,-0.029820317,0.046516314,9.90E-04,-0.051062085,0.062258976,0.00117425,27.73926353,0.912633538,1.135553002,3.900000095,1.696853161,1.588852048,155,-86.9104357,40.424697,-79.47860641,9.105469823,13.83040772,-57.33333333,-0.085493551,0.018527003,0.068585302,0.19433969,-0.004686296,0.013987634,0.980100446,-0.013842939,-0.025711928,-0.391663455,-110.7391537,66.52623268,-23.36897751,9.803299418,0.267558989,0.20699354,Campus
151,9.999269004,-0.09280609,0.253978956,-0.043831257,0.051225177,-0.043500629,-0.065058199,0.066970803,-0.043315297,28.69178391,0.876584291,1.753309965,3.900000095,1.597328067,355.0943604,155,-86.9104394,40.4247122,-74.82479454,8.619543843,14.70148778,-34.875,0.056763797,0.030920978,0.227755328,0.174012804,-0.002945301,-0.005554761,0.984508298,-0.003680187,0.012105482,-0.349765912,-106.0848543,66.03908714,-22.49801954,9.999269004,-0.09280609,0.253978956,Campus
152,9.937764112,0.105780766,-0.007660517,-0.137996623,-0.028196828,0.046679407,-0.159223565,-0.012451202,0.046892907,29.8231163,0.851469338,1.763145089,3.900000095,1.498244405,357.5582886,155,-86.9104427,40.4247259,-72.1567762,12.73472575,15.73531568,-32.44444444,0.023686617,0.037880714,0.018558657,0.160854386,0.001808918,0.003140531,0.986152251,0.003610759,-0.006709666,-0.323442866,-103.4168362,70.15378059,-21.46528959,9.937764112,0.105780766,-0.007660517,Campus
153,9.809118007,0.147085997,0.617757692,-0.238021379,-0.131530835,-0.118391686,-0.259248322,-0.115794106,-0.118210805,26.71392632,0.857029736,1.773126364,3.900000095,1.64937377,4.942766666,155,-86.9104422,40.4247402,-72.44738045,12.79157778,7.875343808,-39.125,-0.076668295,-0.109756967,0.401942236,0.111200322,-0.008729854,0.013091478,0.991820931,-0.020730882,-0.026308645,-0.222838886,-103.8185825,70.25906631,-29.27731556,9.809118007,0.147085997,0.617757692,Campus
154,9.88647816,-0.530056682,0.368442417,0.121677213,0.040680649,0.016279378,0.100428032,0.056435169,0.016469155,26.8015728,0.832165837,1.783217072,3.900000095,1.650244951,5.864152431,155,-86.9104394,40.4247558,-65.79655075,14.93048171,-1.987623942,-53,-0.016433193,-0.187219064,-0.523850106,0.002293475,-0.04502531,-0.017490414,0.998147497,-0.090148893,0.03541214,-0.003145919,-100.7760241,73.91089226,-37.56758129,9.88647816,-0.530056682,0.368442417,Campus
155,10.05088309,-0.103463442,0.335361062,0.174110557,0.037003249,0.074770054,0.152876273,0.052747248,0.074971223,25.84578323,0.832165837,1.793275476,3.900000095,1.709725261,5.118942261,155,-86.9104372,40.4247717,-66.30529083,15.24658367,4.941487902,-49.77777778,0.092216634,-0.017464251,0.176336938,0.135967064,-0.008643434,-0.003057106,0.989804775,-0.016773408,0.008365502,-0.272943278,-101.2856179,74.22675064,-30.63932341,10.05088309,-0.103463442,0.335361062,Campus
156,9.885885771,0.203218592,0.257867294,0.116572492,-0.02948969,0.002342569,0.095339619,-0.013745545,0.002532347,27.04214478,0.832165837,1.690980911,3.900000095,1.641612887,1.580556273,155,-86.910436,40.4247868,-66.20549469,13.87188776,5.323591902,-55.375,-0.03954205,-0.139581946,0.076321346,0.200463683,-0.005502127,0.018854126,0.978913044,-0.018287689,-0.03450761,-0.404400234,-102.4728,73.21512672,-29.62965139,9.885885771,0.203218592,0.257867294,Campus
157,9.936948128,0.137468241,-0.064824004,-0.02902414,0.066122732,-0.008700126,-0.05025553,0.081877255,-0.008498487,27.78935814,0.876584291,1.700980544,3.900000095,1.631828427,0.220229,155,-86.9104363,40.4248015,-64.10733875,12.33529775,5.24917192,-57.33333333,0.01057016,-0.00764639,-0.097568347,0.220888423,-1.94E-04,0.007721142,0.974843741,-0.003297561,-0.014697483,-0.445647722,-101.4272601,71.9748745,-29.19106142,9.936948128,0.137468241,-0.064824004,Campus
158,10.04211034,0.319189187,-0.112843078,-0.212092989,-0.035718256,-0.014417182,-0.233319931,-0.019965217,-0.014228886,27.89592171,0.896270037,1.710883856,3.900000095,1.637872219,5.171798706,155,-86.9104349,40.4248162,-62.06371689,11.92647579,5.564297888,-57.5,0.111181055,-0.047629318,0.071903435,0.165446906,0.01215721,0.016624959,0.98548108,0.018579259,-0.036903466,-0.33233435,-99.383638,71.56495476,-28.87544739,10.04211034,0.319189187,-0.112843078,Campus
159,9.928883997,0.386464088,-0.019958579,0.189943845,0.002404841,0.001061569,0.168700594,0.018148984,0.001255796,34.44605255,1.092931867,1.720898986,3.900000095,1.623901844,6.647329807,155,-86.9104317,40.4248303,-63.21539692,15.92709976,3.508231939,-54.88888889,0.001788477,-0.002861377,-0.073279041,0.158702959,5.45E-04,0.019850977,0.9859636,-0.005408176,-0.039232365,-0.31935301,-100.5353175,75.56692039,-30.93212345,9.928883997,0.386464088,-0.019958579,Campus
160,9.75363117,0.352308614,0.076840669,0.016862054,0.003294425,-0.002425596,-0.004364889,0.019034118,-0.002229889,26.20242882,0.851469338,1.730921507,3.900000095,1.702509642,357.3327942,155,-86.9104313,40.4248452,-64.83153091,15.76471759,3.719779928,-62,-0.148689557,0.167744321,0.046013502,0.201747015,3.76E-04,0.00998947,0.979139471,-0.002945963,-0.019616657,-0.406399804,-102.15133,75.40527054,-30.72020945,9.75363117,0.352308614,0.076840669,Campus
161,10.14819605,-0.087268332,0.100556629,-0.00855631,-0.031529801,-0.026740877,-0.029783252,-0.015788623,-0.026551099,27.86816597,0.896270037,1.31567359,3.900000095,1.642226934,356.1920776,155,-86.9104332,40.4248603,-61.29279892,14.70953975,4.647711935,-54.77777778,0.217439239,-0.036544307,0.033046019,0.200743166,-0.004285046,-0.001547403,0.979236971,-0.00740434,0.005000319,-0.404481578,-98.61284225,74.34984856,-29.79239939,10.14819605,-0.087268332,0.100556629,Campus
162,9.947910381,-0.309170695,-0.507321961,0.077749588,0.096321124,-0.05951313,0.056518197,0.11207268,-0.059318902,28.02470589,0.832165837,1.325600386,3.900000095,1.579577327,1.184542656,155,-86.9104339,40.4248741,-61.8259388,18.13420162,4.802895911,-64.11111111,0.030110623,0.113772926,-0.111316129,0.207305235,0.014277107,-0.024538518,0.97736866,0.038902377,0.041830256,-0.419062624,-99.14610428,77.77377831,-29.63709341,9.947910381,-0.309170695,-0.507321961,Campus
163,9.945142991,-0.351547463,-0.310886902,0.009720182,-0.025753439,-0.004513154,-0.011517139,-0.010003365,-0.004314479,28.29899025,0.890505493,1.335514903,3.900000095,1.604275227,357.5870667,155,-86.9104346,40.4248882,-61.21276669,11.54241975,11.20594376,-62.625,-0.001296006,-0.148912002,-0.011746462,0.257040781,0.012617962,-0.013527943,0.965528995,0.031574863,0.02046112,-0.52080499,-98.73362183,71.05597046,-23.48560951,9.945142991,-0.351547463,-0.310886902,Campus
164,9.744140037,0.220119358,-0.253659526,-0.080612563,-0.008756465,0.135863107,-0.101839506,0.006987676,0.136094396,28.042099,0.832165837,1.345527649,3.900000095,1.574216008,3.10904479,155,-86.910436,40.424903,-61.28779701,14.45272973,13.51235376,-63.66666667,-0.158726951,-0.072435636,0.142570478,0.233270797,0.022540734,0.009403772,0.971603632,0.039915495,-0.028685338,-0.470822775,-99.19941818,73.77657097,-21.53360956,9.744140037,0.220119358,-0.253659526,Campus
165,9.731502274,0.944711938,-0.296437042,-0.043751937,-0.038307171,0.039611095,-0.064984752,-0.022560234,0.039799048,26.18724442,0.870919049,1.355524778,3.881000042,1.704840899,3.016366482,155,-86.9104353,40.4249186,-61.02305683,7.738825818,9.268461833,-62.375,-0.154771415,0.032318827,0.058329604,0.220755543,0.026962665,0.040519414,0.973519444,0.035389897,-0.090776845,-0.44445232,-102.5434376,66.53916473,-25.9512295,9.731502274,0.944711938,-0.296437042,Campus
166,10.01547857,0.653774902,-0.650386039,0.069899014,0.026921758,-0.076284741,0.048666141,0.042674798,-0.076094964,29.91449738,0.865332305,1.03750217,3.881000042,1.532963872,3.833173752,155,-86.9104345,40.4249332,-57.66195705,3.318521939,16.22355967,-59.33333333,0.140188148,-0.139087581,-0.152273184,0.217877215,0.032728419,0.033750794,0.974048696,0.05034541,-0.080112433,-0.438094338,-99.18124001,62.11812862,-18.99661968,10.01547857,0.653774902,-0.650386039,Campus
167,9.949089356,0.608317083,-0.586351895,0.049213236,-0.001805855,0.007253071,0.027980363,0.013933842,0.007448778,29.18348503,0.840595007,1.047545433,3.881000042,1.521613955,1.381984115,155,-86.9104342,40.4249468,-54.85571312,-7.386611856,32.53020147,-66.625,0.050151945,-7.80E-04,0.071275696,0.266656532,0.039878879,0.020806373,0.961920899,0.066312079,-0.06132235,-0.538813248,-96.37658218,51.41287319,-2.689855908,9.949089356,0.608317083,-0.586351895,Campus
168,9.83772444,0.532687629,-0.772446129,0.010537115,0.042673316,-0.010372543,-0.010698723,0.058426355,-0.010182766,27.5965538,0.832165837,1.057515383,3.878000021,1.587712526,358.4308472,155,-86.9104351,40.4249606,-54.4289571,23.44510555,28.0041234,-65.66666667,-0.044372332,0.075369196,-0.013141993,0.293035051,0.042952072,0.011080528,0.954465757,0.076682751,-0.046114864,-0.593796687,-95.94885017,82.24507874,-7.215567844,9.83772444,0.532687629,-0.772446129,Campus
169,9.955045369,0.286389512,-0.994688245,-0.008081866,-0.032656606,-0.00415732,-0.029308809,-0.016910981,-0.003955682,30.96260071,0.840595007,1.067560554,3.878000021,1.43696475,0.623438478,155,-86.910435,40.4249737,-59.2151387,16.21709371,14.67110977,-57.375,0.082972902,-0.098927569,-0.215521105,0.263342252,0.042958789,0.008492036,0.963137297,0.07883682,-0.038954284,-0.531984774,-100.7344222,75.01706665,-20.54870354,9.955045369,0.286389512,-0.994688245,Campus
170,9.668110705,0.548054169,-0.172881436,-0.13948964,-0.007926188,-0.023965377,-0.160718065,0.007823886,-0.02375336,26.97568893,0.832165837,1.077560544,3.900000095,1.608706474,4.480761051,155,-86.9104337,40.4249871,-61.98649075,13.25505569,10.70452379,-56.22222222,-0.206165791,-0.096425804,0.347162646,0.291103898,0.034408357,0.023922652,0.955244563,0.052280596,-0.065744128,-0.590004883,-103.5061399,72.05502846,-24.51614351,9.668110705,0.548054169,-0.172881436,Campus
171,10.04656208,0.489930439,-0.919613433,0.013629903,0.006058064,0.049099073,-0.007602971,0.021802207,0.049308124,29.84756851,0.912633538,1.383441806,3.900000095,1.576866627,4.074029446,155,-86.9104319,40.4250016,-62.96920059,8.999817848,16.18476361,-61.55555556,0.199582549,0.014942386,-0.049616752,0.232037771,0.048143745,0.013602264,0.97081331,0.087606361,-0.048726432,-0.467391729,-104.489338,67.79991272,-19.03492763,10.04656208,0.489930439,-0.919613433,Campus
172,9.795208234,0.236265098,-1.12270425,0.037808775,-0.024211494,-0.098476882,0.016569971,-0.008468834,-0.098278209,31.29119682,0.960208297,1.39336586,3.900000095,1.554733753,0.649640918,155,-86.9104314,40.425016,-63.05582066,17.95473968,15.16801566,-53,-0.063621299,-0.029856286,-0.227767722,0.248692849,0.046779441,0.00153678,0.966635716,0.091150856,-0.02597295,-0.5022973,-104.5753478,76.75446838,-20.05252962,9.795208234,0.236265098,-1.12270425,Campus
173,9.914129211,-0.126044256,-0.550697677,-0.04099645,0.020872592,0.0231351,-0.062223393,0.036618219,0.023329325,27.07739449,0.845990539,1.403393269,3.900000095,1.63620019,2.690673113,155,-86.9104316,40.4250316,-57.01767475,19.28783361,13.36595373,-49.33333333,-0.011336331,0.050771796,0.097189215,0.26069787,0.028920872,-0.016327879,0.964369812,0.06507873,0.016890943,-0.528306351,-98.53756805,78.08866051,-21.85410349,9.914129211,-0.126044256,-0.550697677,Campus
174,9.922756709,0.249323988,-0.522770764,-0.054363925,-0.021103884,0.028365848,-0.075590866,-0.005362706,0.02855859,28.9238739,0.890505493,1.413430095,3.900000095,1.598458886,1.24409008,155,-86.9104315,40.4250478,-67.11317482,21.36012552,1.543421954,-41.625,0.012133635,-0.043750765,0.07894105,0.227709326,0.03258452,0.007238363,0.972779623,0.060584718,-0.028834019,-0.458961917,-108.6327016,80.16058632,-33.6765135,9.922756709,0.249323988,-0.522770764,Campus
175,9.787803293,0.414112222,-0.327267865,-0.002405212,-0.026795049,0.020146213,-0.02363509,-0.011051049,0.020345912,29.63500977,0.926552773,1.423367262,3.900000095,1.589481354,352.5438538,155,-86.9104344,40.4250631,-60.38499683,6.556889858,5.94420589,-43.33333333,-0.146661048,-0.01371527,0.012209314,0.216629424,0.020981629,0.017283576,0.97544809,0.034187145,-0.042633543,-0.436225204,-101.90489,65.35710659,-29.27597347,9.787803293,0.414112222,-0.327267865,Campus
176,10.01401214,0.272987958,-0.46917909,-0.010608282,0.032864177,-0.001168319,-0.031835225,0.048612767,-9.62E-04,27.99982262,0.882326484,1.035916924,3.881000042,1.61503768,355.5147705,155.5999908,-86.9104372,40.4250785,-57.16968681,16.8846777,12.36055171,-50.125,0.115525019,-0.017204835,-0.005553316,0.223331528,0.025694545,0.009256874,0.973774408,0.046750578,-0.029270904,-0.450173152,-98.68970238,75.68391861,-22.85840752,10.01401214,0.272987958,-0.46917909,Campus
177,9.948197906,0.068962083,-0.577370098,0.02282671,-0.059308524,-0.054567045,0.001589391,-0.043565864,-0.054383199,31.10057259,0.990454435,1.045902848,3.878000021,1.603444338,352.6014404,155.5999908,-86.9104386,40.4250937,-64.33730862,16.53404963,7.529107857,-39.44444444,0.04621677,-0.080955242,0.047232419,0.232637521,0.031971415,3.84E-04,0.971370244,0.063030514,-0.015155182,-0.469332163,-105.8576902,75.33536438,-27.69058346,9.948197906,0.068962083,-0.577370098,Campus
178,9.84324183,0.43571442,0.122649584,-0.034609242,-0.022835607,0.016481014,-0.055842114,-0.007089978,0.016681171,26.96464348,0.832165837,1.055889845,3.881000042,1.635108113,354.6961975,155.5999908,-86.91044,40.4251095,-60.50907097,13.86054179,4.12616192,-38.77777778,-0.091867266,0.076068637,0.0871639,0.221239054,0.002106273,0.018187941,0.974570712,-0.003548004,-0.036211157,-0.446581422,-102.0287199,72.65917297,-31.09389547,9.84324183,0.43571442,0.122649584,Campus
179,9.887724115,0.08112589,0.114907255,0.059271459,-0.024401273,-0.042611043,0.038038587,-0.008652679,-0.042415335,27.83967018,0.845990539,1.065867782,3.881000042,1.595919967,0.995202065,155.5999908,-86.9104392,40.4251251,-60.19211502,13.84748777,4.734819899,-49.375,0.00124473,-0.018342802,-0.140604365,0.217875132,-0.011603237,0.007729663,0.975456156,-0.025573063,-0.00954866,-0.439453023,-101.7120081,72.64770454,-30.4859693,9.887724115,0.08112589,0.114907255,Campus
180,10.00097358,0.115140071,0.012028,0.002160205,0.005215924,0.015330486,-0.019072668,0.020971928,0.01552768,29.55162239,0.910219729,1.076001644,3.878000021,1.566393614,359.3080444,155.5999908,-86.9104378,40.42514,-60.75258274,13.08718373,8.362123842,-50.77777778,0.06462524,-0.065677667,0.007233533,0.237799213,0.002165934,0.009520113,0.97088924,-1.15E-04,-0.01935514,-0.480446807,-102.2727197,71.88874252,-26.85829954,10.00097358,0.115140071,0.012028,Campus
181,9.792731239,0.184325745,0.367019501,-0.036588563,-0.018696077,-0.016623351,-0.057822918,-0.0029549,-0.016417264,26.73472786,0.832165837,1.034768343,3.881000042,1.63786757,359.9151917,155.5999908,-86.9104374,40.4251551,-61.12187698,15.41567567,7.253265853,-61.125,-0.112659339,-0.020143977,-0.005028832,0.224598879,-0.01598039,0.014358437,0.973710848,-0.036938462,-0.020604147,-0.453709298,-102.6426242,74.21723389,-27.96679146,9.792731239,0.184325745,0.367019501,Campus
182,10.20367524,-0.075931463,-0.033667944,0.024531744,0.027823204,-0.059596156,0.003297389,0.043573278,-0.059409345,27.79703903,0.832165837,1.044876099,3.878000021,1.597256541,359.9905701,155.5999908,-86.9104372,40.4251699,-60.52236885,18.39479366,7.122481866,-57.77777778,0.276910592,0.102624942,0.023364549,0.227335326,7.69E-07,-0.009146389,0.973242367,0.004880358,0.017812579,-0.45900924,-102.04214,77.19501022,-28.0983074,10.20367524,-0.075931463,-0.033667944,Campus
183,9.555136134,0.424000044,0.284417761,0.008330948,-0.049855219,0.051032431,-0.01290489,-0.034099213,0.051251864,29.54249001,0.862670302,1.054716349,3.881000042,1.507435799,0.853697777,155.5999908,-86.9104369,40.4251835,-61.50800701,15.63978968,5.421435897,-61.5,-0.346840956,0.208779208,-0.092851807,0.231478088,-0.015899929,0.014668238,0.972065879,-0.037392343,-0.021005196,-0.468262227,-103.0277783,74.44037254,-29.79825552,9.555136134,0.424000044,0.284417761,Campus
184,9.889434331,-0.145915723,0.346477236,-0.020714478,0.020505965,-0.057760306,-0.041948762,0.036267588,-0.057556201,30.05696869,0.884816349,1.064737082,3.878000021,1.514623523,11.25957584,155.5999908,-86.9104343,40.4251972,-60.38804707,17.98902167,5.098013906,-55.11111111,-0.036842154,0.031069874,-0.105843115,0.227931109,-0.024575422,-0.002893901,0.972860177,-0.046265017,0.017333415,-0.459634866,-101.9074522,76.78960464,-30.12253138,9.889434331,-0.145915723,0.346477236,Campus
185,9.720281534,-0.330604453,0.13971877,0.007235278,0.034738231,0.011119792,-0.013996112,0.050494237,0.011318467,25.32897758,0.840595007,1.074720502,3.881000042,1.72989428,5.775699615,155.5999908,-86.9104307,40.4252121,-61.15664688,18.19873966,7.014755845,-12,-0.217568786,-0.068638657,0.058926727,0.233120951,-0.007094328,-0.011673306,0.972008722,-0.008173127,0.026328908,-0.470675146,-102.6760516,76.99871277,-28.20481342,9.720281534,-0.330604453,0.13971877,Campus
186,10.01201424,-0.432505594,0.175332336,0.017683436,-0.002066799,-0.01771457,-0.003546472,0.013683274,-0.017514415,23.93338203,0.832165837,1.035179257,3.878000021,1.846975803,358.9865112,155.5999908,-86.9104312,40.4252286,-61.08857105,17.49016373,6.507601905,-11.11111111,0.091354509,-0.074222561,-0.065257281,0.231699857,-0.015986524,-0.014477739,0.972179074,-0.024269778,0.036024772,-0.467523245,-102.6085863,76.29025856,-28.71233345,10.01201424,-0.432505594,0.175332336,Campus
187,9.963428919,-0.300435728,0.192421855,0.047468169,-0.017142271,0.012721042,0.026236778,-0.00139961,0.012915269,28.37567329,0.832165837,1.045168996,3.881000042,1.594933391,357.3015442,155.5999908,-86.9104337,40.4252436,-60.63814678,16.49439981,7.356477876,-8.111111111,0.025623757,-0.049490542,-0.045802158,0.24355866,-0.01467128,-0.009182204,0.969517391,-0.023961468,0.025175233,-0.492033944,-102.1587717,75.29486015,-27.86321344,9.963428919,-0.300435728,0.192421855,Campus
188,9.895396061,-0.226873854,0.219875427,-0.069522423,-0.022942356,0.019493738,-0.090749366,-0.007204142,0.019686481,27.57912064,0.930053771,1.055122733,3.900000095,1.680524826,353.5905762,155.5999908,-86.9104368,40.4252581,-60.19174877,16.8406357,8.224263854,-22.5,-0.041993826,0.048156029,0.040593613,0.24857636,-0.012443993,-0.010973914,0.967971251,-0.018072412,0.027655479,-0.502437205,-101.711886,75.64146248,-26.99567144,9.895396061,-0.226873854,0.219875427,Campus
189,10.04791382,-0.326395964,0.279810697,-0.035626333,0.035070343,0.010763957,-0.05686217,0.050817452,0.010986355,28.53260231,0.936002135,1.065155029,3.900000095,1.65622282,353.0777283,155.5999908,-86.9104408,40.4252742,-59.71326511,18.51996573,7.543381839,-13.55555556,0.100519703,0.049433635,0.093536171,0.234587168,-0.013777213,-0.015523016,0.971264528,-0.018961996,0.03725043,-0.473574535,-101.2335246,77.3200605,-27.6760655,10.04791382,-0.326395964,0.279810697,Campus
190,9.798004697,-0.210179272,0.082624978,-0.044021035,0.014526897,-0.030655044,-0.065247977,0.03027104,-0.030462301,28.11828804,0.944033921,1.075109482,3.900000095,1.684770584,351.2973328,155.5999908,-86.9104449,40.4252901,-61.09174267,19.90649559,6.732447853,-28.875,-0.126353551,0.007020382,0.074273284,0.213886118,-0.003183134,-0.010562745,0.976445991,-0.001582625,0.022216859,-0.431204109,-102.6122459,78.70585854,-28.48724344,9.798004697,-0.210179272,0.082624978,Campus
191,9.949159141,-0.347104482,0.312425976,0.021139468,-0.034815329,-0.01503396,-9.49E-05,-0.019069701,-0.014844181,24.94615936,0.840595007,1.033994079,3.900000095,1.774819136,353.6286621,155.7999878,-86.9104497,40.4253072,-62.69067467,18.9581896,3.951701919,-29.44444444,0.032743449,-0.142139113,-0.050651189,0.20585712,-0.019201998,-0.006207926,0.977831433,-0.034858627,0.020457635,-0.414859306,-104.21008,77.75791855,-31.26884333,9.949159141,-0.347104482,0.312425976,Campus
192,10.0305296,-0.499304264,0.020443539,0.073740532,-0.012504577,-0.043002462,0.052509141,0.003245497,-0.042808235,27.1475811,0.893084526,1.044068575,3.900000095,1.720823765,356.4815674,155.7999878,-86.9104527,40.4253237,-63.79831306,18.22594569,4.548281922,-49.375,0.102187971,-0.050466639,-0.197738634,0.218004353,-0.015962426,-0.019885694,0.975409513,-0.022352753,0.045942844,-0.439257955,-105.3189379,77.02591866,-30.67189737,10.0305296,-0.499304264,0.020443539,Campus
193,9.930783133,-0.617194341,0.603049383,-0.217584682,-0.022076495,0.032457932,-0.238811625,-0.006321974,0.032644745,27.116539,0.870919049,1.053983331,3.900000095,1.6789608,356.914856,155.7999878,-86.9104552,40.4253402,-61.25998062,16.92884165,3.71184993,-53.88888889,0.061972271,-0.135130108,0.064131969,0.198550987,-0.032379679,-0.0188422,0.978007431,-0.055019236,0.049691039,-0.399586682,-103.0106978,75.73662254,-31.44562143,9.930783133,-0.617194341,0.603049383,Campus
194,9.887567154,-0.125292139,0.627973652,0.106905613,0.021896525,-0.008363909,0.085671328,0.037640526,-0.00817302,26.07412529,0.840595007,1.063932896,3.900000095,1.705723882,358.7077332,155.7999878,-86.910457,40.4253567,-57.16004898,13.66717172,3.257765938,-60.75,-0.075776939,0.170279736,0.180399109,0.180167822,-0.024472902,-0.009599919,0.982872344,-0.044605865,0.027815584,-0.36195743,-101.9804082,72.58743675,-31.06217546,9.887567154,-0.125292139,0.627973652,Campus
195,9.874810274,-0.282480841,0.32314431,-0.046210893,-0.024935022,0.050308905,-0.067442283,-0.009195326,0.050513509,27.38922501,0.851469338,1.074045897,3.900000095,1.642111778,359.815155,155.7999878,-86.9104574,40.4253727,-50.42577103,16.86527964,4.614161909,-60,-0.050450251,-0.100243051,-0.076909822,0.199446697,-0.021687905,-0.004826236,0.979330336,-0.040311723,0.018250323,-0.401494948,-95.2455201,75.78493477,-29.7061455,9.874810274,-0.282480841,0.32314431,Campus
196,9.871514323,0.338834147,0.240025665,0.146892456,0.010126424,0.023894209,0.125656619,0.025877982,0.024106225,26.77481461,0.845990539,1.166544676,3.900000095,1.657214522,2.576197624,155.6999969,-86.9104561,40.425388,-56.04972691,18.68600765,4.475203922,-47.33333333,-0.039407688,0.144878147,-0.2166391,0.209734903,-0.020600336,0.014595952,0.976951796,-0.04599542,-0.019601459,-0.423351251,-100.8699642,77.60627258,-29.84473749,9.871514323,0.338834147,0.240025665,Campus
197,9.856980194,0.10861498,0.217511644,-0.049554243,0.027633426,-0.035518099,-0.070787116,0.043377568,-0.035319424,26.59861565,0.837615669,1.176443219,3.900000095,1.668188095,2.953100681,155.6999969,-86.910454,40.4254031,-58.9299028,15.34064572,8.137155824,-47.75,-0.065447881,-0.160735119,0.049344143,0.243870633,-0.004979467,0.01529882,0.969349643,-0.016950585,-0.027211691,-0.493191951,-103.7503841,74.25981262,-26.18327358,9.856980194,0.10861498,0.217511644,Campus
198,9.963138571,-0.102682292,0.282030739,-0.030653561,2.58E-04,-0.028152349,-0.051880503,0.016009536,-0.027972949,25.8359642,0.845990539,1.186439872,3.900000095,1.707951665,352.5955811,155.6999969,-86.9104544,40.4254183,-57.04976082,17.92460572,5.492439878,-48.44444444,0.032380974,-0.080742477,-0.032228447,0.210837007,-0.015880727,0.00243465,0.976943103,-0.031628525,0.00217717,-0.425018698,-101.8693877,76.84499222,-28.82750153,9.963138571,-0.102682292,0.282030739,Campus
199,9.992228976,-0.241841892,0.226955779,-0.008677886,-0.016311994,-0.024760071,-0.029913724,-5.57E-04,-0.024570294,30.91747284,0.845990539,1.196456552,3.900000095,1.470926762,358.8291626,155.6999969,-86.9104567,40.4254315,-60.00630875,23.26930353,5.8273299,-61,0.069415319,0.066034781,0.107098131,0.222270784,-0.009200279,-0.013857491,0.974379774,-0.011607341,0.031521998,-0.448541937,-104.8259362,82.1892025,-28.49285559,9.992228976,-0.241841892,0.226955779,Campus
200,9.840985534,0.07436916,0.138917293,0.033841235,0.004302619,0.054175628,0.012608361,0.020052692,0.054371337,29.38318443,0.851469338,1.206511617,3.900000095,1.502763987,3.323796749,155.6999969,-86.9104554,40.4254439,-64.53592438,16.76511763,4.105665922,-61.11111111,-0.095204761,-0.104741851,-0.062267556,0.214183276,-0.007857353,0.011297357,0.976350554,-0.019993147,-0.01838137,-0.432078031,-109.3555517,75.68513885,-30.2142753,9.840985534,0.07436916,0.138917293,Campus
201,9.933294986,-0.027706213,0.1566689,-0.031882668,0.007433953,-0.038993405,-0.053114058,0.023181061,-0.038799178,31.53555298,0.857029736,1.187989116,5.106999874,1.407482266,2.188498497,155.5999908,-86.9104542,40.4254564,-62.90637081,15.55841569,3.160653931,-62.125,0.001005409,0.039264727,-0.007838359,0.21434122,-0.009238369,-0.001383236,0.976362889,-0.017042651,0.006877462,-0.432095599,-107.7266079,74.47831474,-31.15940935,9.933294986,-0.027706213,0.1566689,Campus
202,10.0201423,-0.093331704,0.355006022,-0.073157855,-0.041232189,-0.031544626,-0.094390728,-0.025491013,-0.031369676,30.02035904,0.890505493,1.197993636,6.31400013,1.492074966,2.025651455,155.5999908,-86.9104541,40.4254681,-59.53795078,13.41548573,2.993635938,-64,0.124973663,0.053512304,0.104686284,0.193160791,-0.013787041,-0.004941617,0.980613064,-0.025308612,0.015335667,-0.388776418,-104.3580659,72.33514038,-31.3260615,10.0201423,-0.093331704,0.355006022,Campus
203,9.864632042,-0.59565893,0.176897544,-0.014728536,0.037513731,-0.07648638,-0.035962892,0.053257874,-0.076299568,30.68582344,0.918368101,1.20791328,7.520999908,1.506428003,2.853557825,155.5999908,-86.910454,40.4254805,-56.79941673,17.19699766,3.539951916,-58.77777778,-0.076785069,-0.001720413,-0.063010361,0.167036977,-0.017362844,-0.026848046,0.985086708,-0.025384228,0.058786794,-0.335170052,-101.6197765,76.11714035,-30.77998936,9.864632042,-0.59565893,0.176897544,Campus
204,9.833478898,-0.660282564,0.244837447,0.145829505,-0.038788801,0.08773881,0.124577599,-0.023047738,0.087938511,28.12273979,0.832165837,1.217929006,8.727999687,1.560199142,1.235820413,155.5999908,-86.9104542,40.4254937,-54.34868103,16.88748363,5.26881391,-60.5,-0.070965386,-0.008851191,-0.162059929,0.20572546,-0.026002135,-0.027337203,0.976999015,-0.040038395,0.064970935,-0.414041325,-99.16855225,75.8068943,-29.05088343,9.833478898,-0.660282564,0.244837447,Campus
205,9.95563189,-0.436751118,0.197904436,-0.013131734,0.044796454,-0.062264907,-0.034361641,0.060552459,-0.062076609,30.68638992,0.912633538,1.227952361,8.928999901,1.525761604,355.0997314,155.5999908,-86.9104559,40.4255075,-52.73022915,17.82175971,6.495767899,-63.77777778,0.037474845,-0.107328811,0.08099107,0.235378485,-0.009686043,-0.014680433,0.971416806,-0.011799356,0.03318186,-0.475320931,-97.54985634,76.74190277,-27.82429552,9.95563189,-0.436751118,0.197904436,Campus
206,9.974823896,-0.528038459,0.213428744,-0.051370475,-0.021744384,-0.005521347,-0.072601865,-0.005997275,-0.005327122,28.90042305,0.832165837,1.560995698,9.93500042,1.520988345,356.7362976,155.7999878,-86.9104587,40.425522,-56.23882713,22.61257757,5.682515898,-58,0.058657165,-0.00583582,0.067089344,0.220450161,-0.013070482,-0.024003708,0.974619367,-0.014757984,0.052556423,-0.44466102,-101.0593082,81.53186684,-28.63803551,9.974823896,-0.528038459,0.213428744,Campus
207,10.02049366,-0.426584522,0.31185681,0.019346957,-0.003051271,0.065799517,-0.001885916,0.012686942,0.065996709,30.40019226,0.826801062,1.570986986,9.93500042,1.443669558,359.5430298,155.7999878,-86.9104594,40.4255362,-59.05519695,17.62326559,5.131319919,-53.11111111,0.093350818,-0.126785245,0.028235861,0.213171017,-0.017300422,-0.011502356,0.976379959,-0.028565498,0.030147764,-0.429405131,-103.8748242,76.54267616,-29.1883774,10.02049366,-0.426584522,0.31185681,Campus
208,9.77171853,0.264920897,0.163025563,-0.041221811,0.002321812,-0.034296404,-0.062448754,0.018074853,-0.034108109,36.23269653,0.926552773,1.580945373,9.93500042,1.293397546,3.262504339,155.7999878,-86.9104583,40.425549,-56.30787903,14.09600172,5.677879872,-60.5,-0.161270364,0.04767391,-0.05073731,0.213535148,-0.008067022,0.013147797,0.976386036,-0.021498234,-0.021873719,-0.430951167,-101.1284821,73.01590034,-28.64242741,9.77171853,0.264920897,0.163025563,Campus
209,10.02242969,-0.308211086,-0.177497397,-0.107856054,0.052067314,0.003825211,-0.12908448,0.067824802,0.004037226,39.38554764,1.056882262,1.590942621,9.93500042,1.328250527,357.2972717,155.7999878,-86.9104569,40.4255608,-55.54196293,21.89607161,5.709843881,-61.66666667,0.086401662,0.064736893,-0.042648159,0.160032991,0.003224727,-0.019086504,0.985356265,0.013556256,0.037861812,-0.322570347,-100.3623225,80.81609169,-28.60997545,10.02242969,-0.308211086,-0.177497397,Campus
210,9.683155,0.027346129,-0.418006369,0.032447554,0.042103983,0.029018209,0.01120875,0.057865919,0.029205021,34.46979904,0.952102959,1.60088408,9.93500042,1.345703125,350.1842041,155.7999878,-86.9104591,40.4255737,-61.47152866,18.58145364,9.495869837,-65,-0.231521565,-0.100685013,0.082725238,0.171595738,0.025924477,0.002454455,0.984271558,0.050277035,-0.013288493,-0.344872523,-106.2916443,77.5015966,-24.82419346,9.683155,0.027346129,-0.418006369,Campus
211,9.962795836,0.227080033,-0.415050191,-0.007803129,-0.134035011,0.021379655,-0.029036002,-0.118281973,0.021591671,31.84677124,0.865332305,1.989191413,9.93500042,1.381307244,357.847168,155.2999878,-86.9104611,40.4255874,-61.59291878,14.09758774,7.694295855,-50.77777778,0.085096308,0.04504729,-0.156044393,0.176301167,0.01406575,0.006349103,0.982776754,0.026680986,-0.017417418,-0.356145086,-106.4127898,73.01712029,-26.62552351,9.962795836,0.227080033,-0.415050191,Campus
212,10.02656289,0.05762231,0.063961544,0.055035562,0.001147562,-0.060722963,0.033804171,0.016896153,-0.060537633,34.0069809,0.884816349,1.999186754,9.93500042,1.321268797,3.966618299,155.2999878,-86.9104599,40.4256009,-58.15630077,17.04522973,4.619895909,-54.5,0.07861654,-0.076366098,-0.01587297,0.182143702,-0.002326452,0.00804586,0.982857176,-0.007095515,-0.014884844,-0.366607124,-102.9765381,75.96500656,-29.70016729,10.02656289,0.05762231,0.063961544,Campus
213,9.922158489,-0.208088449,0.308456328,0.087579483,-0.020831077,-0.039562737,0.066327336,-0.005078038,-0.039364064,36.30833435,0.910219729,2.009244442,9.93500042,1.246200681,4.853488445,155.2999878,-86.9104564,40.4256132,-60.61704075,17.32912368,5.77084389,-54.33333333,-0.032541516,-0.05322024,0.056588084,0.212510965,-0.013504156,-0.004541988,0.976606379,-0.023896987,0.014882474,-0.428330515,-105.4381319,76.2493882,-28.54946346,9.922158489,-0.208088449,0.308456328,Campus
214,9.920035802,-0.11539852,0.161259985,-0.067275427,0.028380904,0.043710819,-0.088502369,0.044130778,0.043906115,28.42592049,0.845990539,2.019268036,9.93500042,1.511319041,357.884613,155.2999878,-86.9104543,40.4256281,-57.65183086,15.83925969,6.167587891,-65,0.029847649,0.034460992,0.037828352,0.223463715,-0.009346667,-0.005989786,0.974089877,-0.014914666,0.016126222,-0.450897974,-102.4724342,74.75964622,-28.15247547,9.920035802,-0.11539852,0.161259985,Campus
215,9.871264546,-0.070672479,0.556729102,-0.045147839,-0.09447672,-0.006660015,-0.066374781,-0.078741472,-0.006480616,31.52475929,0.904433548,2.029244184,9.93500042,1.453583479,357.1536255,155.2999878,-86.910453,40.4256445,-55.4158149,17.91106364,2.589693949,-66.5,-0.04288254,-0.074072631,-0.093602174,0.189604617,-0.032324605,0.006439508,0.980894505,-0.065515305,-3.49E-04,-0.381849979,-100.2359303,76.83035255,-31.72975931,9.871264546,-0.070672479,0.556729102,Campus
216,9.935223195,-0.05612679,0.686478748,0.047279873,0.034370537,-0.031520905,0.026047,0.050125059,-0.031335575,30.15303421,0.845990539,4.543143749,9.93500042,1.459606647,0.504655123,155.1999969,-86.9104509,40.4256606,-58.56609886,21.57618753,2.123897958,-63.33333333,0.042412128,0.126118372,-0.048799166,0.187065972,-0.038265554,-0.001927653,0.981296896,-0.074207118,0.018372855,-0.376011056,-103.3863358,80.49559845,-32.19628731,9.935223195,-0.05612679,0.686478748,Campus
217,9.915691478,-0.23698817,0.708188384,0.04139528,0.024217426,-0.027879544,0.020163889,0.039964534,-0.027686801,29.54807854,0.851469338,4.553041458,9.93500042,1.48298192,350.5707092,155.1999969,-86.9104493,40.4256761,-59.10729084,18.40955559,2.956059942,-63.875,0.007697471,0.059762588,0.099470245,0.20615703,-0.033130142,-0.008171401,0.977714513,-0.061374099,0.029824963,-0.414720274,-103.9277718,77.32847862,-31.36363745,9.915691478,-0.23698817,0.708188384,Campus
218,9.95081433,-0.579489957,0.427975495,-0.023995028,-0.023155855,-0.012199153,-0.04522642,-0.007399851,-0.012025686,31.67975998,0.916078627,4.563070774,9.93500042,1.448335409,348.4143372,155.1999969,-86.9104508,40.425691,-58.54596897,24.09670753,3.821161911,-63.77777778,0.037595346,-0.036932317,-0.099358041,0.213746773,-0.031929317,-0.020745815,0.975633666,-0.053183979,0.054553259,-0.429785883,-103.3647419,83.01611832,-30.49865753,9.95081433,-0.579489957,0.427975495,Campus
219,9.966212667,-0.585358618,0.399299402,-0.082130785,0.023683675,0.016137041,-0.103357728,0.039438196,0.016343128,32.13730621,0.930053771,4.573053837,9.93500042,1.431870341,354.0518799,155.1999969,-86.9104517,40.4257054,-64.75027863,19.49169563,4.778983927,-55.5,0.035653082,-0.015996174,0.08702507,0.191218724,-0.021100992,-0.025372864,0.980556928,-0.031319437,0.058059467,-0.384454254,-109.5708818,78.41244865,-29.54095743,9.966212667,-0.585358618,0.399299402,Campus
220,9.816447462,-0.127144841,0.44674928,-0.038173504,-0.013892327,0.0408556,-0.059400447,0.001847369,0.041055755,32.96052933,0.916078627,4.583065033,9.93500042,1.389314771,354.8884277,155.1999969,-86.9104508,40.4257191,-60.02131485,15.14446974,3.254959941,-59.22222222,-0.098443999,0.030201208,-0.029095659,0.163357532,-0.024990697,-0.003686746,0.985865413,-0.047646514,0.015705557,-0.327970794,-104.8414304,74.0651004,-31.06522545,9.816447462,-0.127144841,0.44674928,Campus
221,9.956012286,-0.195918167,0.565806726,0.048073088,-0.024104744,-0.06954763,0.026841698,-0.008363565,-0.069371195,28.67514229,0.854400396,4.593071461,9.93500042,1.53366673,356.7436218,155.1999969,-86.9104503,40.4257333,-59.09240685,16.76865572,2.419259945,-58,0.052206512,0.008401446,-0.074955792,0.168923227,-0.033408644,-0.004329403,0.984717923,-0.064278239,0.019990545,-0.339144269,-103.9117899,75.68855446,-31.90129145,9.956012286,-0.195918167,0.565806726,Campus
222,9.947518353,-0.769408634,0.671590396,0.018322453,0.026803147,-0.020229126,-0.002905971,0.04254136,-0.02004528,31.1657238,0.932308972,8.617469788,9.93500042,1.522612929,359.5166626,155.1999969,-86.9104488,40.4257485,-58.57463905,20.21454557,3.512257919,-53.44444444,0.044867516,-0.034607617,0.243871554,0.190976527,-0.028173466,-0.031824771,0.980424979,-0.042976968,0.073417769,-0.383191214,-103.394632,79.13615219,-30.80670744,9.947518353,-0.769408634,0.671590396,Campus
223,9.942268112,-0.744054591,0.414913703,-0.113644277,0.012391898,0.022281098,-0.134872703,0.028133076,0.022473842,31.57239914,0.946255803,8.627362251,9.93500042,1.504606128,358.2520752,155.1999969,-86.9104471,40.4257631,-56.24956268,15.72238375,2.452687942,-55,0.031774627,-0.097552054,0.045155106,0.159195277,-0.023958485,-0.029412526,0.986080281,-0.037648289,0.065734951,-0.318914204,-101.0694341,74.64191673,-31.86749737,9.942268112,-0.744054591,0.414913703,Campus
224,9.891005354,-0.451871779,0.487735081,-0.035276429,-0.032045986,0.040621343,-0.056503371,-0.016306391,0.040807828,29.71878052,0.840595007,8.637349129,9.93500042,1.482123137,5.829968929,155.1999969,-86.9104446,40.4257771,-52.87528702,19.3193096,0.977341998,-53.875,-0.024285839,-0.005583952,-0.118384736,0.135822788,-0.033698818,-0.017853868,0.989723198,-0.061637607,0.044680089,-0.271389721,-97.69528008,78.23896461,-33.34272148,9.891005354,-0.451871779,0.487735081,Campus
225,9.909288337,-0.376117454,0.395501058,0.165155605,-0.026002522,-0.018319488,0.143922731,-0.010258378,-0.018128227,32.33763123,0.865332305,8.647351265,9.93500042,1.377187371,23.77102661,155.1999969,-86.9104376,40.4257891,-56.51759674,20.36960766,2.71913596,-47.44444444,0.015067179,0.156442263,-0.218776064,0.165180537,-0.035163992,-0.021164516,0.984889393,-0.062018413,0.053652381,-0.33053014,-101.3385661,79.28889656,-31.60031736,9.909288337,-0.376117454,0.395501058,Campus
226,9.861362193,-0.454758267,0.527231178,0.003364108,0.02073026,-0.003386347,-0.017862835,0.036472919,-0.0032025,32.96706009,0.923579991,8.657349586,9.93500042,1.429041147,23.1697979,155.1999969,-86.9104273,40.4258,-56.96582466,18.12419765,4.570241916,-48.25,-0.043009124,-0.043702335,-0.020322231,0.194095694,-0.031350909,-0.014900361,0.980019243,-0.055220461,0.041413373,-0.389963672,-101.7856959,77.04446243,-29.7496994,9.861362193,-0.454758267,0.527231178,Campus
227,10.03274818,-0.492825631,0.607019032,-0.009189396,0.016353508,-0.004809682,-0.03042375,0.03210803,-0.00461842,29.18689728,0.840595007,1.818065882,9.93500042,1.486642003,6.408354282,155,-86.9104209,40.4258127,-56.35728897,18.38686365,6.040707898,-49.66666667,0.115776655,-0.010725418,0.204259203,0.214361682,-0.025205164,-0.019090861,0.975805908,-0.040619815,0.04851526,-0.431409181,-101.1772817,77.30700684,-28.27862341,10.03274818,-0.492825631,0.607019032,Campus
228,9.899879687,-0.334937089,0.444577156,0.013121356,-0.032988718,-0.001275071,-0.008113,-0.017249021,-0.001098636,27.49983788,0.832165837,1.827917218,9.93500042,1.588961244,358.2045898,155,-86.9104208,40.4258277,-57.38782291,18.30439171,4.538765936,-39.75,-0.022288035,-0.046757738,-0.124277167,0.197918385,-0.030983983,-0.00844359,0.979493141,-0.057258325,0.028971045,-0.397895162,-102.2074495,77.22441261,-29.78129738,9.899879687,-0.334937089,0.444577156,Campus
229,9.855300248,-0.542612795,0.462240417,0.021649494,0.049279956,-0.003101681,4.15E-04,0.065024098,-0.00291635,30.34811592,0.910219729,1.83799243,9.93500042,1.524400592,358.8781738,155,-86.9104219,40.4258433,-57.37281673,19.69336163,4.300133893,-49.77777778,-0.036821305,0.015440404,-0.054771591,0.208373334,-0.03157693,-0.022339779,0.976952592,-0.052146528,0.057085282,-0.418719107,-102.19342,78.61362648,-30.01992939,9.855300248,-0.542612795,0.462240417,Campus
230,9.876863331,-0.511857864,0.232818159,-0.075939286,0.031345952,0.003338903,-0.097166227,0.047096029,0.003527198,28.50115967,0.845990539,1.848057151,9.93500042,1.554840803,359.8488159,155,-86.9104223,40.4258581,-57.549473,17.80345966,5.258321893,-46.88888889,-0.025805177,-0.054328812,0.098618222,0.196739379,-0.011418391,-0.020961082,0.979740796,-0.013729534,0.046073953,-0.395872548,-102.3700758,76.72213867,-29.06100948,9.876863331,-0.511857864,0.232818159,Campus
231,9.88216877,-0.213928218,-0.05966956,0.066057497,-0.029572717,0.075122353,0.044823141,-0.013827093,0.075335852,28.51179886,0.845990539,1.05663538,9.93500042,1.54809761,350.4836121,154.7999878,-86.9104242,40.4258723,-57.80994293,17.32473169,7.262171869,-39.5,-0.052045257,-0.0411266,-0.014546882,0.196992654,8.29E-04,-0.00892961,0.979696157,0.005264538,0.017522996,-0.396861981,-102.6300579,76.24511856,-27.05825754,9.88216877,-0.213928218,-0.05966956,Campus
232,10.0566764,-0.143284777,0.240342191,-0.085305117,-0.067374081,-0.052977655,-0.106536507,-0.05162697,-0.052793809,25.36823463,0.832165837,1.066521764,9.93500042,1.718382478,354.4204102,154.7999878,-86.910428,40.4258869,-59.38142479,14.29498377,6.873479857,-41.66666667,0.122830238,-0.059949917,-0.032974539,0.19909441,-0.014702999,-0.001539989,0.979266038,-0.027623372,0.008772196,-0.40100731,-104.20093,73.21476028,-27.44658342,10.0566764,-0.143284777,0.240342191,Campus
233,10.03070379,-0.421705956,0.787017951,0.116375299,-0.021400412,-0.016445431,0.095137978,-0.005657749,-0.016267514,35.31391525,0.884816349,1.076628089,9.93500042,1.335232139,0.641900897,154.7999878,-86.9104299,40.4259015,-55.84427891,17.89727767,5.264177904,-41.375,0.142018471,-0.011048602,1.57E-04,0.205150439,-0.043042785,-0.011782614,0.977225762,-0.079030882,0.040889847,-0.412147147,-100.6640282,76.81656654,-29.05588551,10.03070379,-0.421705956,0.787017951,Campus
234,9.870483459,-0.249306561,0.747060138,-0.088204288,0.030706821,0.005779554,-0.109435635,0.04644348,0.005986598,30.7100811,0.851469338,1.086518884,9.93500042,1.422808528,354.84729,154.7999878,-86.9104307,40.4259144,-57.59034306,19.94455961,5.898455868,-48.22222222,-0.071858869,0.083821666,0.161409519,0.224898537,-0.032756241,-0.00924561,0.973459048,-0.059379517,0.032714412,-0.453182493,-102.410824,78.8647023,-28.42111946,9.870483459,-0.249306561,0.747060138,Campus
235,9.895552894,0.004562041,0.81270595,-0.035314978,-0.023155854,0.035292738,-0.05654192,-0.007411712,0.035476587,31.57376099,0.870919049,1.096495986,9.93500042,1.412538528,354.9711914,154.7999878,-86.9104336,40.4259283,-58.47752693,18.11016759,2.811245936,-52.875,0.003713168,-0.013179608,-0.04048495,0.191479448,-0.042129932,0.009335189,0.980137962,-0.086006797,-0.001796901,-0.385762012,-103.296544,77.03031059,-31.5080854,9.895552894,0.004562041,0.81270595,Campus
236,9.87118615,-0.124339665,0.37959634,0.037042251,0.012605396,0.032623986,0.015799001,0.028352505,0.032831556,30.81577492,0.870919049,1.106499434,9.93500042,1.435847521,355.855011,154.7999878,-86.9104356,40.4259422,-58.05565075,17.11171967,5.258199897,-40,-0.048892123,-0.191215229,0.056892807,0.212128448,-0.015659313,0.006768759,0.97630593,-0.032555471,-0.006741969,-0.428029113,-102.875522,76.03076462,-29.06161943,9.87118615,-0.124339665,0.37959634,Campus
237,9.9328275,-0.309609184,0.321384539,0.006465788,0.004777063,-0.109792382,-0.014767084,0.020521206,-0.109615948,31.19243622,0.832165837,1.038888335,9.93500042,1.397242785,355.9798889,154.3999939,-86.9104374,40.4259562,-57.35439499,20.77086558,4.310625908,-43,0.028192594,0.051311221,-0.160808701,0.208374284,-0.027800069,-0.012504953,0.977041838,-0.048642006,0.036258672,-0.419326068,-102.1742661,79.69027641,-30.00955931,9.9328275,-0.309609184,0.321384539,Campus
238,9.93412265,-0.65484645,0.536822793,0.110118561,0.001633869,-0.050119128,0.088875309,0.017383942,-0.049942694,32.82200623,0.946255803,1.048839211,9.93500042,1.422893047,1.951079369,154.3999939,-86.9104382,40.4259702,-57.96146709,22.49399351,5.204275866,-28.25,0.033566503,0.002202296,0.059723094,0.23449503,-0.031205844,-0.026233346,0.970650079,-0.048152262,0.066140741,-0.472600003,-102.7818259,81.41413651,-29.11566536,9.93412265,-0.65484645,0.536822793,Campus
239,9.945330198,-0.415393441,0.083277131,-0.119825398,0.076857039,0.122780298,-0.141052341,0.092623422,0.122996764,27.65816307,0.906973004,1.058850646,9.93500042,1.661461353,0.253399014,154.3999939,-86.9104377,40.4259856,-58.89598686,20.72377359,7.149687839,-29.33333333,0.058446611,-0.020079092,0.12383037,0.225024056,-0.003145571,-0.020258809,0.973247512,0.003567237,0.041396846,-0.454678695,-103.7165903,79.6434285,-27.17098549,9.945330198,-0.415393441,0.083277131,Campus
240,9.917785233,-0.176357411,-0.474438074,-0.056777657,-0.033475023,-0.007383541,-0.078010532,-0.017724948,-0.007173008,24.86098099,0.832165837,1.068836212,9.93500042,1.7711761,357.4092712,154.3999939,-86.9104387,40.4260029,-59.75340302,18.26156975,7.45798183,-20.5,-0.0145129,-0.07632097,-0.156535194,0.192868846,0.014285504,-0.00810858,0.980634519,0.031696822,0.010220817,-0.388649858,-104.5735181,77.18085846,-26.86183746,9.917785233,-0.176357411,-0.474438074,Campus
241,9.793036141,-0.084405081,0.044098792,0.003387831,-0.013500911,-0.0192921,-0.017850972,0.002232855,-0.019108253,27.61872101,0.826801062,1.07882154,9.93500042,1.617770314,356.214386,154.3999939,-86.9104401,40.4260197,-59.91371113,18.30329359,6.724273829,-31.88888889,-0.119734662,0.013209713,0.138477636,0.191199791,0.003762067,-0.005605315,0.980932505,0.010236468,0.009839666,-0.385022183,-104.7329716,77.22355835,-27.59603346,9.793036141,-0.084405081,0.044098792,Campus
242,10.0482173,-0.138345222,0.068279658,0.008563723,-0.029121995,0.059501265,-0.012667668,-0.013383782,0.059708836,30.99432564,0.826801062,1.937933803,9.93500042,1.43268919,354.3448486,154.8999939,-86.9104419,40.4260335,-59.76560318,18.59572767,5.077883887,-25.5,0.137552109,0.02305136,-0.065917934,0.186638696,-0.008516455,-0.006710715,0.981863782,-0.013652845,0.016711164,-0.375452117,-104.585962,77.5152607,-29.24266743,10.0482173,-0.138345222,0.068279658,Campus
243,9.97841304,-0.181140161,0.305532091,-0.054071729,0.017021493,-0.086716818,-0.075298671,0.03277871,-0.086518587,28.76943016,0.876584291,1.948021173,9.93500042,1.538789868,354.9031067,154.8999939,-86.9104436,40.4260466,-59.55161499,18.6730757,4.462271924,-14.88888889,0.007084929,0.069412981,0.104460569,0.175992976,-0.011820198,-0.009326732,0.983649987,-0.019943125,0.022946126,-0.353757382,-104.3703881,77.59260895,-29.85803547,9.97841304,-0.181140161,0.305532091,Campus
244,9.852717312,-0.230797039,0.293498285,0.10873526,-0.064895108,0.03360846,0.087499422,-0.049155413,0.033805652,27.73219299,0.851469338,1.957850099,9.93500042,1.605988264,0.179307252,154.8999939,-86.9104439,40.4260605,-59.55124878,18.73114761,4.30623389,-10,-0.085112599,-0.042982508,-0.030400291,0.186759993,-0.017814448,-0.006063751,0.981832015,-0.032608305,0.018844923,-0.375738445,-104.3712417,77.65226631,-30.0130974,9.852717312,-0.230797039,0.293498285,Campus
245,9.686938827,-0.329137986,0.554205604,-0.04347987,0.050691428,-0.027666044,-0.064714225,0.066453362,-0.027462921,27.70223999,0.832165837,1.967910886,9.93500042,1.592360497,0.033535771,154.8999939,-86.9104425,40.4260749,-59.63274494,19.30686562,2.963745947,-8.111111111,-0.202581586,-0.060164952,-0.179087152,0.203602571,-0.039211582,-0.005460401,0.977707449,-0.073999411,0.027041622,-0.409561298,-104.4523721,78.2268866,-31.35595133,9.686938827,-0.329137986,0.554205604,Campus
246,10.07806661,-0.198171591,0.479569279,0.025126283,0.001527118,-0.005556933,0.003890444,0.017277192,-0.005361223,27.50278854,0.832165837,1.977853537,9.93500042,1.607047915,357.4187012,154.8999939,-86.9104419,40.4260891,-60.19675087,19.02626556,4.549379916,-9.777777778,0.165423333,0.092155158,0.12984515,0.199704463,-0.020289156,-0.010565632,0.979123846,-0.035250553,0.029169103,-0.402045438,-105.0166217,77.94689644,-29.77007349,10.07806661,-0.198171591,0.479569279,Campus
247,9.989619283,-0.257876005,0.261523319,9.59E-04,0.004966842,-0.019292098,-0.020270639,0.020716915,-0.019109734,28.60003662,0.910219729,1.243106008,9.93500042,1.61770606,357.9199829,155,-86.9104419,40.4261038,-59.81525684,17.76929966,5.401061883,-9,0.05962157,-0.069884757,0.060693031,0.190138868,-0.011750131,-0.007269723,0.981442427,-0.020209878,0.018904773,-0.382591543,-104.6351277,76.68858856,-28.9191235,9.989619283,-0.257876005,0.261523319,Campus
248,9.976692828,-0.516119189,0.363663023,0.036521846,0.006900202,0.023384182,0.015288973,0.022641381,0.023587303,30.39036369,0.832165837,1.25305891,9.93500042,1.466508746,359.7007141,155,-86.9104415,40.4261177,-58.54352901,19.87404367,6.02765389,-10.88888889,0.019633488,-0.049397666,0.116057561,0.213223041,-0.017907812,-0.02028408,0.976363639,-0.026099759,0.047481828,-0.429321034,-103.3644978,78.79443039,-28.29253143,9.976692828,-0.516119189,0.363663023,Campus
249,9.919614695,-0.131004141,0.372272677,-0.059210673,-0.027046301,-0.009328764,-0.080442062,-0.011302157,-0.009127126,25.5197258,0.840595007,1.263029337,9.93500042,1.705815673,357.3158264,155,-86.9104419,40.4261319,-59.67178501,17.82078365,4.900495925,-12.25,-0.009097595,-0.102129236,-0.00284158,0.203892575,-0.018970307,0.002694979,0.978284443,-0.037553459,0.002278237,-0.411115685,-104.491534,76.73970642,-29.41920145,9.919614695,-0.131004141,0.372272677,Campus
250,9.942622351,-0.155664148,0.530306414,0.001564184,-0.011152409,0.021391514,-0.019665723,0.004594699,0.02159612,28.62105751,0.906973004,1.273073673,9.93500042,1.650970697,1.267223358,155,-86.9104428,40.4261476,-59.57638123,18.69588962,2.971065943,-11,0.028989843,0.018229647,-0.021365018,0.191965374,-0.028787457,-0.003001865,0.980669741,-0.055012562,0.017159193,-0.386050611,-104.397472,77.61615448,-31.34924126,9.942622351,-0.155664148,0.530306414,Campus
251,9.819531413,0.321160938,0.28956348,0.01400649,0.012047924,0.01674196,-0.007223416,0.027797999,0.016946564,28.07941437,0.837615669,1.283089042,9.93500042,1.582169056,1.034102201,155,-86.9104428,40.4261621,-60.80662888,15.60550765,3.362075939,-10.75,-0.089017178,0.028095137,-0.120763506,0.19100569,-0.017661411,0.018044905,0.980857026,-0.041159858,-0.028468806,-0.385152079,-105.6265001,74.52443069,-30.95749937,9.819531413,0.321160938,0.28956348,Campus
252,10.03949105,0.294581443,0.513495675,-0.006789004,-0.038148301,-0.015200015,-0.028015946,-0.022408605,-0.015011721,28.84191513,0.826801062,2.00261116,9.93500042,1.52904284,1.858363152,155,-86.9104434,40.4261753,-60.75868259,15.35833575,3.659145947,-12,0.119367785,0.037608107,0.095272689,0.190543534,-0.017985876,0.016489,0.981233189,-0.04156455,-0.025512984,-0.3842128,-105.5785539,74.2788446,-30.66030741,10.03949105,0.294581443,0.513495675,Campus
253,10.00401677,0.100248812,0.384669471,0.022837758,0.002314172,0.029696575,0.001609347,0.018058171,0.029903616,29.50777626,0.873670399,2.012652159,9.93500042,1.537997961,1.973696947,155,-86.9104437,40.4261886,-60.7968689,16.07593962,2.634101948,-19.44444444,0.106952112,-0.064221739,-0.205055434,0.180703887,-0.027858248,0.013957875,0.982853197,-0.059717764,-0.01721121,-0.364119317,-105.6172282,74.99608284,-31.68559538,10.00401677,0.100248812,0.384669471,Campus
254,9.866975525,0.099159854,0.361966695,-0.013198451,0.038747288,-0.033964294,-0.034432806,0.054488465,-0.033773034,31.1857357,0.832165837,2.022511244,9.93500042,1.420703888,3.696781635,155,-86.9104433,40.426201,-61.07454098,14.62999576,5.061047883,-38.5,-0.063420333,-0.108211746,0.052314979,0.204329035,-0.013254626,0.013563119,0.978309251,-0.03115836,-0.020851857,-0.412124068,-105.8951439,73.55062675,-29.25889347,9.866975525,0.099159854,0.361966695,Campus
255,9.819116125,0.083893989,0.492814016,-0.150000068,-9.52E-04,-0.045789822,-0.171227011,0.014787841,-0.045614871,28.85124588,0.832165837,2.032534599,9.93500042,1.504089355,359.6011658,155,-86.9104418,40.4262135,-60.23139889,15.67065571,4.66149792,-40,-0.100958833,0.017360022,0.264144405,0.178345427,-0.01102727,0.005652215,0.982916889,-0.023050255,-0.006638862,-0.358951853,-105.0515138,74.5901886,-29.65844345,9.819116125,0.083893989,0.492814016,Campus
256,10.02788995,-0.168987292,0.15473199,-0.15908568,0.016128148,0.01760782,-0.180312623,0.031876738,0.017790185,30.12166405,0.826801062,2.042537689,9.93500042,1.457767606,2.534627199,155,-86.9104407,40.4262264,-59.12461472,18.0788136,1.138259974,-37.375,0.10964782,0.058619112,-0.013215823,0.081866709,-0.00981276,-0.010403548,0.9957978,-0.016962201,0.022921315,-0.163656915,-103.9444857,76.99846893,-33.18131525,10.02788995,-0.168987292,0.15473199,Campus
