seconds_elapsed,location_bearingAccuracy,location_speedAccuracy,location_verticalAccuracy,location_horizontalAccuracy,location_speed,location_bearing,location_altitude,location_longitude,location_latitude,orientation_qz,orientation_qy,orientation_qx,orientation_qw,orientation_roll,orientation_pitch,orientation_yaw,accelerometerUncalibrated_z,accelerometerUncalibrated_y,accelerometerUncalibrated_x,microphone_dBFS,magnetometer_z,magnetometer_y,magnetometer_x,gyroscope_z,gyroscope_y,gyroscope_x,accelerometer_z,accelerometer_y,accelerometer_x,totalAcceleration_z,totalAcceleration_y,totalAcceleration_x,gyroscopeUncalibrated_z,gyroscopeUncalibrated_y,gyroscopeUncalibrated_x,magnetometerUncalibrated_z,magnetometerUncalibrated_y,magnetometerUncalibrated_x,class
0,45,1.5,1,12.91100025177002,0,0,149.39999389648438,-86.9110037,40.4279893,-0.933643661,0.016334608694337106,-0.005731185,0.3481304697893761,6.697105064951167E-4,0.034760899,2.4261198937892914,9.910241001530698,-0.346077716,-0.013680019,-114.6666667,-57.7297734,-20.54479973,-18.99055095,1.4445713777850206E-4,-9.99E-04,4.416260824261888E-4,0.003196652,-0.001202969,-0.006924183,9.908777032,-0.345391833,-0.012543388,-0.021082485,0.014119652011809317,7.470496647009575E-4,-100.9753317,37.65017537434896,-51.64259913,Classroom
1,45,1.5,1,12.91100025177002,0,0,149.39999389648438,-86.9110037,40.4279893,-0.939577224,0.016431647,-0.005660447,0.34189548017909227,5.993247142364498E-4,0.034755184450774516,2.443605913699252,9.883963371943501,-0.342922845,-0.010085283,-111.625,-57.62962688,-20.52747566,-19.03822166,3.113542418945038E-5,-8.27E-04,-1.94E-04,-0.012940314,0.001292211,-0.004074852,9.883963371943501,-0.342922845,-0.010085283,-0.021195806,0.014291157267843057,1.1119790639710224E-4,-100.8897283,37.67250137329101,-51.67834499,Classroom
2,45,1.5,1,12.91100025177002,0,0,149.39999389648438,-86.9110037,40.4279893,-0.939300307,0.015999213195613867,-0.005242289,0.34268148373631596,0.001117186,0.033655192,2.441930972256707,9.881730339,-0.337509958,-0.013578688,-109,-57.57826469,-20.58261959,-19.07006367,1.9719097898929444E-4,2.6390976973275827E-4,0.003482719,-0.002019604,-0.00465598,-0.002475102,9.881730339,-0.337509958,-0.013578688,-0.021029751,0.015382379492365041,0.003788143,-100.8381222,37.61747924804688,-51.71030895,Classroom
3,45,1.5,1,12.91100025177002,0,0,149.39999389648438,-86.9110037,40.4279893,-0.938852451,0.015043210373847808,-0.004669491,0.34395912058145095,0.001581298,0.031464112,2.4392167526541404,9.918104616,-0.308563773,-0.018564703,-123.625,-57.64060715,-20.69803156,-19.06676975,-1.11E-04,-1.75E-04,2.6835766575724175E-4,0.019583961338672823,0.003111108,-0.002837652,9.918104616,-0.308563773,-0.018564703,-0.02133814,0.014943518413646707,5.737812737527403E-4,-100.901074,37.50182346343994,-51.70689308,Classroom
4,45,1.5,1,12.91100025177002,0,0,149.39999389648438,-86.9110037,40.4279893,-0.938587419,0.014767108304263319,-0.004441209,0.34469665456744075,0.001844253,0.030787014176399962,2.4376456668076005,9.946513759279714,-0.303269944,-0.020562594,-124.4444444,-57.60059082,-20.68522152,-19.00686764,-1.59E-04,-6.82E-05,-7.56E-05,0.014669853506736386,0.00270375,-0.002172048,9.946513759279714,-0.303269944,-0.020562594,-0.021385584,0.015050268379374615,2.2980902407282187E-4,-100.8606921,37.513047218322754,-51.64808884,Classroom
5,45,1.5,1,12.91100025177002,0,0,149.39999389648438,-86.9110037,40.4279893,-0.938477491,0.014644034233993119,-0.004352618,0.3450023019776761,0.001935675,0.030494243,2.4369948512142146,9.948841846906221,-0.302415971,-0.018774455,-131.375,-57.68818687,-20.69046761,-18.97953962,-2.54E-04,-1.51E-04,7.4132084530027745E-6,0.001579044,9.23459101649164E-4,7.411181854391561E-4,9.948841846906221,-0.302415971,-0.018774455,-0.021480473,0.014967240646336843,3.128368107972721E-4,-100.9482882,37.50889942169189,-51.619907,Classroom
6,45,1.5,1,12.91100025177002,0,0,149.39999389648438,-86.9110037,40.4279893,-0.938557909,0.014684323836298823,-0.004497394,0.3447798548392879,0.001684347,0.030670189904501138,2.437471672169213,9.911431544035384,-0.308215305,-0.018843478,-126.8888889,-57.7195409,-20.70461962,-18.95599373,-8.75E-05,-4.24E-04,-1.82E-04,-0.017615633,-0.003483565,-0.001858624,9.911431544035384,-0.308215305,-0.018843478,-0.021314417,0.014694435096987821,1.2305901991655526E-4,-100.9797639,37.495845527648925,-51.5967271,Classroom
7,45,1.5,1,12.91100025177002,0,0,149.39999389648438,-86.9110037,40.4279893,-0.938687366,0.014946292959225988,-0.004571097,0.344415054,0.00171463,0.031213561488876065,2.438244951581492,9.897182113,-0.309423331,-0.019865655,-132,-57.61437675,-20.75122355,-19.01735971,-2.54E-04,-2.22E-04,-3.01E-04,-0.008003503,2.5164039389601034E-4,-0.002995116,9.897182113,-0.309423331,-0.019865655,-0.021480473,0.014896074002518238,4.447905066450244E-6,-100.8748444,37.44826545715332,-51.65821499,Classroom
8,45,1.5,1,12.91100025177002,0,0,149.39999389648438,-86.9110037,40.4279893,-0.938623584,0.015017350023449625,-0.004457695,0.3445872372215234,0.001982346,0.031268497,2.4378734514551255,9.895253774031852,-0.310050577,-0.020214124,-130.1111111,-57.62791889,-20.72304157,-19.00637962,-2.42E-04,-1.75E-04,-7.56E-05,-0.001613978,-2.66E-04,-8.24E-04,9.895253774031852,-0.310050577,-0.020214124,-0.021468612,0.014943518395562775,2.2980902972405108E-4,-100.8874102,37.47705741882324,-51.64638096,Classroom
9,45,1.5,1,12.91100025177002,0,0,149.39999389648438,-86.9110037,40.4279893,-0.938631513,0.015000968410346944,-0.004442882,0.3445665521117357,0.001998177,0.031227572,2.4379175442915697,9.900968792369065,-0.30740221,-0.021282764,-120.1111111,-57.64914669,-20.75976364,-18.9602636,-2.00E-04,-2.58E-04,-1.41E-04,0.001875887,0.001873554,-0.001291476,9.900968792369065,-0.30740221,-0.021282764,-0.021426642,0.014860034418793825,1.6445886397447722E-4,-100.9093703,37.44070133209229,-51.60075279,Classroom
10,45,1.5,1,1600,0,0,149.39999389648438,-86.9080931,40.4347685,-0.938649086,0.014918529672674763,-0.004488512,0.34452160990353925,0.001854115,0.031104294836376476,2.4380164215865645,9.907061086117643,-0.306487478,-0.021677695,-77.5,-57.65146492,-20.75829954,-18.99198362,-2.82E-05,-6.02E-04,-1.11E-04,0.003832049,0.001763872,-0.003243485,9.907061086117643,-0.306487478,-0.021677695,-0.021255112,0.014516518378937707,1.9422568803544618E-4,-100.9118103,37.44240947723389,-51.63296082,Classroom
11,45,1.5,1,1600,0,0,149.39999389648438,-86.9080931,40.4347685,-0.938612622,0.014783482718308575,-0.004468804,0.34462696545332383,0.001801441,0.030836906,2.4377945325906993,9.940604200640928,-0.306301627,-0.01851824,-68,-57.63255524,-20.72816559,-19.00540371,-1.82E-04,-1.87E-04,4.299655127185352E-5,0.018906334071483427,-1.57E-04,-5.70E-04,9.940604200640928,-0.306301627,-0.01851824,-0.021409307,0.014931657270175739,3.484201389229269E-4,-100.892168,37.470835494995114,-51.64516106,Classroom
12,45,1.5,1,1600,0,0,149.39999389648438,-86.9080931,40.4347685,-0.938490511,0.014626499554775293,-0.004345814,0.3449676982986117,0.001935212,0.030456689,2.437068846619245,9.958843712667816,-0.301193646,-0.021747389,-64.375,-57.57106689,-20.69705555,-18.96416773,-2.77E-04,-1.75E-04,-4.00E-05,0.008818432,0.002063818,-0.002419722,9.958843712667816,-0.301193646,-0.021747389,-0.021504195,0.014943518422688673,2.653923482426162E-4,-100.831534,37.50475135803222,-51.60392498,Classroom
13,45,1.5,1,1600,0,0,149.39999389648438,-86.9080931,40.4347685,-0.938475271,0.014645027665837296,-0.004323106,0.3450082233808573,0.001991921,0.03047549,2.4369813840366104,9.956555192287151,-0.302597157,-0.014730814,-51.33333333,-57.58887882,-20.72792158,-19.01687166,4.299654222988677E-5,-4.24E-04,-1.82E-04,-0.001284072,8.681451232687941E-4,0.004785019,9.956555192287151,-0.302597157,-0.014730814,-0.021183946,0.014694435047257004,1.2305905834491393E-4,-100.8488582,37.471689491271974,-51.65711712,Classroom
14,45,1.5,1,1600,0,0,149.39999389648438,-86.9080931,40.4347685,-0.938428361,0.014885987797119086,-0.004436523,0.3451235245153742,0.001949255,0.031005900787207687,2.436732750494503,9.95808281,-0.314798468,-0.018907364,-48,-57.61193703,-20.65655161,-19.03541565,-5.62E-04,-0.001111979,-0.004665865,0.003698914,-0.005229856,-7.57E-04,9.95808281,-0.314798468,-0.018907364,-0.021788862,0.014006490502687334,-0.004360441,-100.8721603,37.54427932739258,-51.67541687,Classroom
15,45,1.5,1,1600,0,0,149.39999389648438,-86.9080931,40.4347685,-0.93858377,0.016399816438121703,-0.005449304,0.3446180959349697,0.001074674,0.034547772403191596,2.437800502314151,9.937926783145052,-0.337463493,-0.018068134,-69.66666667,-57.624991,-20.53638168,-19.03883169,-3.60E-04,-2.34E-04,2.090520942041162E-4,-0.009005797,0.006521794,-0.005617723,9.937926783145052,-0.337463493,-0.018068134,-0.021587224,0.014884212822879403,5.144757225440399E-4,-100.8849702,37.66579128265381,-51.67956497,Classroom
16,45,1.5,1,1600,0,0,149.39999389648438,-86.9080931,40.4347685,-0.938540903,0.016366132489830546,-0.005384278,0.3447376301566374,0.001177951,0.034439666,2.4375447578800533,9.946746002123193,-0.342089425,-0.014057833,-44.625,-57.66915485,-20.5438237,-19.00259762,3.1135451315350617E-5,-4.45E-05,-1.59E-04,0.00128346,4.3279337651521256E-4,-0.00249808,9.946746002123193,-0.342089425,-0.014057833,-0.021195807,0.015073990675358518,1.4678126899525523E-4,-100.9293778,37.65627548217773,-51.64369686,Classroom
17,45,1.5,1,1600,0,0,149.39999389648438,-86.9080931,40.4347685,-0.938542639,0.016355444247332904,-0.00537965,0.3447335912631108,0.001179168,0.034416441,2.437553529555981,9.942215910235655,-0.340646181,-0.01273365,-75.55555556,-57.61498699,-20.54760563,-19.07896973,-8.22E-05,-3.41E-04,-2.11E-04,-0.001100834,0.001706084,-8.06E-04,9.942215910235655,-0.340646181,-0.01273365,-0.021309171,0.014777805020387929,9.397647730880775E-5,-100.8753322,37.65395744,-51.71860493,Classroom
18,45,1.5,1,1600,0,0,149.39999389648438,-86.9080931,40.4347685,-0.938570983,0.016313174,-0.00542581,0.3446576925157343,0.001060524,0.034368988,2.4377176669037457,9.948566742313718,-0.340878494,-0.010433752,-84.125,-57.64682903,-20.51307968,-18.94367168,5.485765914007732E-5,-2.34E-04,3.1135437752400496E-5,0.001889016,0.001218419,1.9308343276526165E-4,9.948566742313718,-0.340878494,-0.010433752,-0.021172084,0.014884212877131204,3.365590287942114E-4,-100.9074177,37.685921096801756,-51.58330704,Classroom
19,45,1.5,1,1600,0,0,149.39999389648438,-86.9080931,40.4347685,-0.938217822,0.015595634,-0.005100211,0.34565513949949767,0.001211315,0.032795846353746154,2.435599667354695,9.949870600283724,-0.327195264,-0.014499228,-90.88888889,-57.58717091,-20.59677162,-19.05932756,-2.54E-04,7.41320121942938E-5,0.002272886,8.123823739949939E-4,-6.78E-04,-0.002371696,9.949870600283724,-0.327195264,-0.014499228,-0.021480473,0.015192601721263627,0.002578309,-100.8472717,37.60271739959717,-51.69957298,Classroom
20,45,1.5,1,1600,0,0,149.39999389648438,-86.9080931,40.4347685,-0.937955278,0.015112258,-0.004843814,0.34639288933531753,0.001383676,0.031710279327862474,2.434031299017008,9.943296117690004,-0.316834113,-0.016590043,-104,-57.61901306,-20.67167959,-19.07421156,5.48576506632335E-5,-3.17E-04,5.530243591423535E-4,-0.003347064,-0.001198098,-0.002752136,9.943296117690004,-0.316834113,-0.016590043,-0.021172084,0.014801185,8.584479479236727E-4,-100.879114,37.52817539215088,-51.71470093,Classroom
21,45,1.5,1,1600,0,0,149.39999389648438,-86.9080931,40.4347685,-0.937966638,0.015092566528004928,-0.004822067,0.3463632866595555,0.001409841,0.031658303,2.434094354944322,9.908039778,-0.316601798,-0.016590043,-105.2222222,-57.61181488,-20.68729574,-18.98685959,-1.23E-04,-2.70E-04,4.2996554097468124E-5,-0.018426016,-0.002120735,-0.002520467,9.908039778,-0.316601798,-0.016590043,-0.021350001,0.01484863,3.4842013609731224E-4,-100.8711842,37.51292537689209,-51.62686111,Classroom
22,45,1.5,1,1600,0,0,149.39999389648438,-86.9080931,40.4347685,-0.938032339,0.015254927347007306,-0.00482033,0.3461781378509929,0.001519338,0.031962007899018166,2.434485326692896,9.892673721680275,-0.31632425,-0.013980181,-121.5555556,-57.62438095,-20.69266369,-19.04090557,1.2602431200064935E-4,-2.11E-04,3.276632084890983E-4,-0.009415043,1.1080387726570796E-5,0.001760985,9.892673721680275,-0.31632425,-0.013980181,-0.021100918,0.014907935060090522,6.330868402197596E-4,-100.8847259,37.507923431396485,-51.68090714,Classroom
23,45,1.5,1,1600,0,0,149.39999389648438,-86.9080931,40.4347685,-0.937978556,0.015265854780824439,-0.00470203,0.34632503697015704,0.001753971,0.031900336369148734,2.434168706819849,9.898558412940757,-0.318529995,-0.021282764,-112.625,-57.61413284,-20.69668959,-19.03224371,4.299654392525554E-5,-4.12E-04,-8.75E-05,0.001747483,-0.002041649,-0.00473514,9.898558412940757,-0.318529995,-0.021282764,-0.021183945,0.014706296,2.1794794728635875E-4,-100.8744782,37.50292121887207,-51.67187893,Classroom
24,45,1.5,1,1600,0,0,149.39999389648438,-86.9080931,40.4347685,-0.93798944,0.015241587,-0.004689828,0.346296845,0.001759097,0.03184642,2.434229128569075,9.902223226,-0.315091764,-0.019795961,-121.8888889,-57.657565,-20.72962959,-19.0441997,1.92743089746286E-5,-2.70E-04,1.8532989542135626E-4,0.002312151,2.0422055883315002E-4,-0.002051935,9.902223226,-0.315091764,-0.019795961,-0.021207667,0.014848629519054033,4.907534785514462E-4,-100.9173003,37.46985939025879,-51.68481102,Classroom
25,45,1.5,1,1600,0,0,149.39999389648438,-86.9080931,40.4347685,-0.93800381,0.015118155872575867,-0.004689955,0.34626305624119286,0.001672073,0.031614884,2.4343040707041914,9.911507041708937,-0.317507818,-0.020013754,-84.875,-57.57741085,-20.70169161,-19.00003559,-1.47E-04,-4.60E-04,-1.63E-05,0.005848792,-0.004002241,-0.002835554,9.911507041708937,-0.317507818,-0.020013754,-0.021373723,0.014658851662053935,2.89114584323489E-4,-100.8372684,37.499627380371095,-51.64003685,Classroom
26,45,1.5,1,1600,0,0,149.39999389648438,-86.9080931,40.4347685,-0.937991017,0.014919507370975155,-0.004568858,0.34630790180884874,0.001763099,0.031158162,2.434210029932169,9.943470380838635,-0.308282094,-0.016531965,-48.66666667,-57.56508888,-20.72267561,-19.02394762,-1.17E-05,-1.06E-04,7.518119583927238E-4,0.018387923,8.7657542182849E-4,5.030657003562038E-4,9.943470380838635,-0.308282094,-0.016531965,-0.021238689,0.015012746,0.001057236,-100.8244579,37.47766731262207,-51.66468109,Classroom
27,45,1.5,1,1600,0,0,149.39999389648438,-86.9080931,40.4347685,-0.937911725,0.014822692149183124,-0.004618458,0.34652591069925176,0.001609977,0.031010504251400246,2.4337485253232196,9.961855036541095,-0.30329027,-0.018773784,-70.875,-57.57021278,-20.71877155,-19.00088968,1.927430162803062E-5,-4.48E-04,-2.30E-04,0.008135055,0.00551235,-0.002674834,9.961855036541095,-0.30329027,-0.018773784,-0.021207668,0.014670712810045885,7.561459635538094E-5,-100.8304363,37.48218162536621,-51.64101307,Classroom
28,45,1.5,1,1600,0,0,149.39999389648438,-86.9080931,40.4347685,-0.937771206,0.014620362084756778,-0.004486355,0.3469167820458273,0.001730536,0.030538625,2.4329162593026763,9.962520062344746,-0.30516039,-0.018959635,-78.11111111,-57.57985115,-20.70486357,-19.0102836,3.113544001289218E-5,-2.94E-04,3.113539536818138E-5,0.001003182,-7.44E-04,-0.001647284,9.962520062344746,-0.30516039,-0.018959635,-0.021195806,0.014824907304447832,3.365590802203972E-4,-100.839586,37.49450340270996,-51.64979702,Classroom
29,45,1.5,1,1600,0,0,149.39999389648438,-86.9080931,40.4347685,-0.937760027,0.014604152361093794,-0.004444907,0.34694822581068985,0.001798081,0.030479394224951568,2.4328485437967244,9.955144179,-0.303705529,-0.018541472,-88.88888889,-57.547033,-20.66899565,-19.00174358,3.1135429840679596E-5,-1.99E-04,-2.89E-04,-0.003799809,5.248536183996108E-5,-5.61E-04,9.955144179,-0.303705529,-0.018541472,-0.021195806,0.014919796235208373,1.630901293467405E-5,-100.807134,37.53159156799316,-51.63942688,Classroom
30,45,1.5,1,1600,0,0,149.39999389648438,-86.9080931,40.4347685,-0.937809607,0.014714306,-0.004448524,0.34680950120814796,0.001863258,0.030688825687303127,2.433142005,9.943722559855534,-0.305038872,-0.020707119,-111.625,-57.61998878,-20.71608755,-18.97173151,-6.38E-05,-1.04E-04,9.044099009134671E-5,-0.004304867,4.139024655795792E-4,-0.002232941,9.943722559855534,-0.305038872,-0.020707119,-0.021290695,0.015014685066507279,3.958645946961077E-4,-100.8800902,37.48437717437744,-51.61136703,Classroom
31,45,1.5,1,1600,0,0,149.39999389648438,-86.9080931,40.4347685,-0.937823581,0.014603776703543455,-0.004474228,0.3467760479565963,0.00173721,0.030499360334236645,2.433216546345683,9.950114583506167,-0.302918571,-0.018378853,-95,-57.64817089,-20.72743374,-19.01979961,-2.82E-05,-3.88E-04,-1.35E-04,0.001749242,5.299943743400203E-4,-9.07E-04,9.950114583506167,-0.302918571,-0.018378853,-0.021255112,0.014730018427939091,1.705034706036298E-4,-100.9081506,37.47327545166016,-51.65919102,Classroom
32,45,1.5,1,1600,0,0,149.39999389648438,-86.9080931,40.4347685,-0.937844686,0.014654039134027309,-0.004456657,0.3467170842064237,0.001803149,0.030581588522323126,2.4333407369632165,9.949423456654966,-0.304475067,-0.017496064,-94.625,-57.61047295,-20.69681158,-19.0002796,-4.00E-05,2.9652858677419643E-6,-2.42E-04,-1.95E-04,2.980081780442914E-4,4.724777728608511E-4,9.949423456654966,-0.304475067,-0.017496064,-0.021266973,0.015121435068403055,6.375347209859242E-5,-100.870452,37.502799377441406,-51.63954891,Classroom
33,45,1.5,1,1600,0,0,149.39999389648438,-86.9080931,40.4347685,-0.937883742,0.014635031626930514,-0.004495773,0.3466117150575212,0.001713122,0.030573250960956498,2.4335668943460704,9.949127317632286,-0.304544763,-0.018285927,-99.77777778,-57.63877678,-20.73731552,-19.0204097,7.41319941103603E-6,-1.75E-04,6.671875909658022E-5,8.096046818112864E-5,-3.75E-04,-0.001028057,9.949127317632286,-0.304544763,-0.018285927,-0.021219528,0.014943518449814574,3.7214237839453717E-4,-100.898634,37.46205127716065,-51.65955734,Classroom
34,45,1.5,1,1600,0,0,149.39999389648438,-86.9080931,40.4347685,-0.937932942,0.014697932002421182,-0.004518875,0.34647560176941067,0.001708949,0.030707531,2.433856338262558,9.939640101,-0.307262821,-0.017496064,-109.5,-57.58985474,-20.6953476,-19.01016169,-1.17E-05,-1.53E-04,-3.52E-05,-0.005113611,-0.001444578,-5.32E-04,9.939640101,-0.307262821,-0.017496064,-0.021238689,0.014965757951498605,2.701824302605998E-4,-100.849712,37.50584949493408,-51.64943111,Classroom
35,45,1.5,1,13.067000389099121,0,0,149.39999389648438,-86.9110121,40.427983,-0.937936498,0.014723815277074148,-0.004493282,0.346465213,0.00177459,0.030738376750095376,2.433877255,9.937119530242624,-0.305566937,-0.018750553,-119.8888889,-57.55862289,-20.71047558,-19.01467573,-2.82E-05,-3.41E-04,6.671876192219483E-5,-0.0022222,1.7592860657034568E-4,-0.001038329,9.937119530242624,-0.305566937,-0.018750553,-0.021255112,0.014777462857151494,3.721423755689226E-4,-100.8183584,37.48962352752685,-51.6546772,Classroom
36,45,1.5,1,13.067000389099121,0,0,149.39999389648438,-86.9110121,40.427983,-0.938012797,0.014837006604280865,-0.004538327,0.34625314711367045,0.001761538,0.030982382,2.4343280213550456,9.907891643857493,-0.310189964,-0.018704091,-119,-57.62889503,-20.75634764,-19.03407368,-1.47E-04,-1.99E-04,3.113543153604836E-5,-0.015565659,-0.002514361,-0.001150008,9.907891643857493,-0.310189964,-0.018704091,-0.021373723,0.014919796189998539,3.365590350105635E-4,-100.8883862,37.443873443603515,-51.67407505,Classroom
37,45,1.5,1,13.067000389099121,0,0,149.39999389648438,-86.9110121,40.427983,-0.938094947,0.015015622,-0.004563412,0.3460224878440783,0.001830552,0.031335372025671514,2.4348163581588893,9.893650925,-0.311444452,-0.021305995,-124.3333333,-57.61779285,-20.70644958,-18.89926365,-5.19E-05,-3.29E-04,3.1135429275556676E-5,-0.007646746,-9.57E-04,-0.003108677,9.893650925,-0.311444452,-0.021305995,-0.021278834,0.014789323991580495,3.365590372710552E-4,-100.8771619,37.49425937652588,-51.53865517,Classroom
38,45,1.5,1,13.067000389099121,0,0,149.39999389648438,-86.9110121,40.427983,-0.938110593,0.015065318208585666,-0.004535225,0.3459782921573491,0.001916404,0.031409209738801985,2.4349087164239975,9.895610213279724,-0.311780191,-0.020454032,-106.4444444,-57.59144081,-20.71755157,-18.97136568,-4.00E-05,-2.22E-04,-8.75E-05,-1.41E-05,-5.23E-04,-0.001270077,9.895610213279724,-0.311780191,-0.020454032,-0.021266973,0.014896073975392337,2.179479173348439E-4,-100.8514202,37.48266941070557,-51.61185478,Classroom
39,45,1.5,1,13.067000389099121,0,0,149.39999389648438,-86.9110121,40.427983,-0.938118857,0.015062879843329921,-0.004503834,0.3459564062576849,0.001972909,0.031382952,2.434954640934768,9.902711155,-0.310282889,-0.020911063,-110,-57.56277081,-20.71950371,-18.89316362,-1.63E-05,-2.70E-04,-2.82E-05,0.003355054,2.696204532697363E-4,-0.001237865,9.902711155,-0.310282889,-0.020911063,-0.021243251,0.014848629537137966,2.772534798460027E-4,-100.8229939,37.47998535,-51.53231068,Classroom
40,0,1.5,1,13.63700008392334,0.085400082,0,149.39999389648438,-86.9110079,40.4279886,-0.938144188,0.015087137,-0.004488642,0.3458867229304267,0.002015856,0.031418063686889354,2.435102235923693,9.909117152389971,-0.309684683,-0.020469668,-113.8888889,-57.60303101,-20.75183365,-18.95452969,-1.63E-05,-2.94E-04,-2.82E-05,0.003956785,0.001888556,-0.001521541,9.909117152389971,-0.309684683,-0.020469668,-0.021243251,0.014824907331573732,2.772534883228465E-4,-100.8627662,37.44777744293213,-51.595019,Classroom
41,0,1.5,1,13.63700008392334,0.085400082,0,149.39999389648438,-86.9110079,40.4279886,-0.938136244,0.015067014137952073,-0.004446616,0.3459097656231482,0.002081601,0.031351201,2.4350525337515525,9.9184648,-0.311415412,-0.024140212,-118.625,-57.62279495,-20.72877562,-18.95940964,-1.35E-04,-3.77E-04,-2.77E-04,0.003650536,-4.01E-04,-0.002686592,9.9184648,-0.311415412,-0.024140212,-0.021361862,0.014741879535242192,2.8170137756585496E-5,-100.8826521,37.47144550323486,-51.6000211,Classroom
42,0,1.5,1,13.63700008392334,0.085400082,0,149.39999389648438,-86.9110079,40.4279886,-0.938116707,0.015001820092930378,-0.004398717,0.34596619299314557,0.002128251,0.031195568300566627,2.4349325582819077,9.911129451492458,-0.309214249,-0.023698818,-115.1111111,-57.62206291,-20.7500036,-18.96319174,-1.59E-04,-6.82E-05,1.4974655938398057E-4,-0.001944098,1.825698949758289E-4,-0.002251289,9.911129451492458,-0.309214249,-0.023698818,-0.021385584,0.015050268370332649,4.551701436443164E-4,-100.8817982,37.450583610534665,-51.6040469,Classroom
43,0,1.5,1,13.63700008392334,0.085400082,0,149.39999389648438,-86.9110079,40.4279886,-0.938046599,0.015012105067188922,-0.004250898,0.34615767431946903,0.0024192,0.031112084057755195,2.434520240013416,9.910775184631348,-0.309307174,-0.023907899,-119.125,-57.60974064,-20.72706762,-18.91878368,-7.05E-05,-1.53E-04,1.1747063623400978E-4,-2.66E-04,-6.89E-04,2.8121482151059004E-5,9.910775184631348,-0.309307174,-0.023907899,-0.021297424,0.014965758,4.2289424667475174E-4,-100.8698424,37.471933364868164,-51.55829693,Classroom
44,0,1.5,1,13.63700008392334,0.085400082,0,149.39999389648438,-86.9110079,40.4279886,-0.938106069,0.014899144979935247,-0.004341539,0.3460001806610996,0.002165589,0.030963221818064022,2.434861092891508,9.913687835619287,-0.307707119,-0.02302511,-109.8888889,-57.60754478,-20.73597357,-18.9304957,-6.38E-05,-3.77E-04,1.4974654582103046E-4,0.001097457,-6.00E-04,-0.001486783,9.913687835619287,-0.307707119,-0.02302511,-0.021290696,0.014741879517158258,4.551701572072665E-4,-100.8677682,37.46436935424805,-51.57049698,Classroom
45,0,1.5,1,13.63700008392334,0.085400082,0,149.39999389648438,-86.9110079,40.4279886,-0.938161993,0.014915469916338481,-0.004379145,0.34584736534692706,0.002101261,0.031020241997485022,2.435187508758989,9.916684632162445,-0.308305324,-0.024581606,-111.375,-57.63304302,-20.76159355,-18.89267567,-5.19E-05,-5.19E-04,-7.56E-05,0.002384723,-5.39E-04,-0.003678084,9.916684632162445,-0.308305324,-0.024581606,-0.021278834,0.014599546,2.2980902576819062E-4,-100.8925342,37.44009147644043,-51.53255508,Classroom
46,0,1.5,1,13.63700008392334,0.085400082,0,149.39999389648438,-86.9110079,40.4279886,-0.9381354,0.014760546729836649,-0.004361045,0.34592629752112825,0.002030543,0.030716775889390882,2.435022374958668,9.952777473671922,-0.303249616,-0.019656574,-103.8888889,-57.60351883,-20.68766157,-19.00955162,1.92743168863495E-5,-6.26E-04,6.671876418268651E-5,0.018413701,0.002103971,5.890327388221778E-4,9.952777473671922,-0.303249616,-0.019656574,-0.021207668,0.014492796119121671,3.721423733084309E-4,-100.8639859,37.51219345092773,-51.64943108,Classroom
47,0,1.5,1,13.63700008392334,0.085400082,0,149.39999389648438,-86.9110079,40.4279886,-0.938030392,0.014556901267214307,-0.004259965,0.34622087524932565,0.0020888,0.030264004251187287,2.434396449801991,9.969051379423876,-0.300342382,-0.023721155,-105,-57.67366905,-20.67314363,-18.96160563,-1.47E-04,-1.51E-04,-7.56E-05,0.008732564,0.001222812,-0.002985379,9.969051379423876,-0.300342382,-0.023721155,-0.021373723,0.014967240664420777,2.2980902633331355E-4,-100.9335265,37.52658954620361,-51.60099693,Classroom
48,0,1.5,1,13.63700008392334,0.085400082,0,149.39999389648438,-86.9110079,40.4279886,-0.938012235,0.014501094,-0.004229572,0.34627281953987565,0.002108843,0.030138138,2.434286235605629,9.963995257627618,-0.300595443,-0.021515077,-114.6666667,-57.60229885,-20.75183365,-19.00698973,-1.71E-04,-1.87E-04,-8.75E-05,-0.001136465,1.1447824320746857E-4,-3.81E-04,9.963995257627618,-0.300595443,-0.021515077,-0.021397445,0.014931657,2.179479224209502E-4,-100.862156,37.44911949157715,-51.64613712,Classroom
49,0,1.5,1,13.63700008392334,0.085400082,0,149.39999389648438,-86.9110079,40.4279886,-0.938042394,0.014598025461134402,-0.004226256,0.34618707333953636,0.00217948,0.030317919292640917,2.434466762450135,9.959935604947285,-0.303078286,-0.02446545,-120.25,-57.5785088,-20.71157366,-18.97246368,7.413207887879853E-6,-2.11E-04,-6.38E-05,-0.001646209,-0.001012697,-0.002730346,9.959935604947285,-0.303078286,-0.02446545,-0.021219529,0.014907935082695438,2.4167013872252073E-4,-100.8384876,37.487793350219725,-51.61222111,Classroom
50,0,1.5,1,13.293999671936035,0.039636914,0,149.39999389648438,-86.9110051,40.4279913,-0.93806912,0.014666209901565487,-0.00422114,0.34611181958207804,0.002233886,0.030442499,2.434625519132151,9.954429784,-0.302683353,-0.023396811,-112.8888889,-57.62450283,-20.75049158,-18.95086964,-4.45E-06,-3.41E-04,-2.06E-04,-0.003090701,8.094235531334738E-4,-0.001592564,9.954429784,-0.302683353,-0.023396811,-0.02123139,0.014777462820983628,9.933679683350967E-5,-100.8844823,37.44802143096924,-51.5901392,Classroom
51,0,1.5,1,13.293999671936035,0.039636914,0,149.39999389648438,-86.9110051,40.4279913,-0.938132966,0.014766553372073058,-0.004264906,0.3459338743526202,0.002215426,0.030661508,2.4350037024571347,9.915830889951836,-0.307471903,-0.025092695,-120.6666667,-57.61596306,-20.67375359,-19.00308561,-1.41E-04,-4.23E-04,7.048238610598043E-5,-0.020785057,-0.002556395,-0.002349122,9.915830889951836,-0.307471903,-0.025092695,-0.021367907,0.014695575451836564,3.759059954273443E-4,-100.8761858,37.52524726867676,-51.64235481,Classroom
52,0,1.5,1,13.293999671936035,0.039636914,0,149.39999389648438,-86.9110051,40.4279913,-0.938250394,0.014999176963295752,-0.004357805,0.3456041185022558,0.002191187,0.031163149,2.435703641002618,9.896183023,-0.310027343,-0.022746335,-120.125,-57.6648848,-20.71694166,-18.99893764,-4.00E-05,-3.41E-04,-7.56E-05,-0.010538564,-0.001077005,-9.67E-04,9.896183023,-0.310027343,-0.022746335,-0.021266973,0.014777462820983628,2.2980902124720726E-4,-100.9244981,37.48327945709229,-51.63991512,Classroom
53,0,1.5,1,13.293999671936035,0.039636914,0,149.39999389648438,-86.9110051,40.4279913,-0.938295717,0.015035901544163528,-0.004393469,0.3454790129823592,0.002145472,0.03125703,2.435970403615711,9.897158780144256,-0.310143502,-0.024418987,-113.7777778,-57.6557349,-20.73719368,-18.93952368,-1.63E-05,-4.24E-04,7.413214669354911E-6,-0.001193445,-5.24E-04,-0.003111321,9.897158780144256,-0.310143502,-0.024418987,-0.021243251,0.014694435042736022,3.1283680458091994E-4,-100.9163239,37.462783126831056,-51.57989105,Classroom
54,0,1.5,1,13.293999671936035,0.039636914,0,149.39999389648438,-86.9110051,40.4279913,-0.938330553,0.015017774588998082,-0.004423282,0.3453847953995455,0.00207383,0.031243814,2.436172457574641,9.902711099791295,-0.310654588,-0.02193324,-123.25,-57.65500286,-20.72218769,-18.94367174,-7.56E-05,-5.31E-04,1.853298914654958E-4,0.002577272,-0.001110115,-0.001329703,9.902711099791295,-0.310654588,-0.02193324,-0.021302556,0.014587685067966146,4.907534825073067E-4,-100.9149825,37.47803340911865,-51.58330692,Classroom
55,0,1.5,1,13.293999671936035,0.039636914,0,149.39999389648438,-86.9110051,40.4279913,-0.938306484,0.014913617199268734,-0.004405326,0.3454549393607575,0.00203785,0.031035751,2.436024943601738,9.907519997902288,-0.307007277,-0.023164498,-113.7777778,-57.66049297,-20.75207752,-19.00857565,-8.75E-05,-4.36E-04,1.927431236536613E-5,0.003024805,6.126150922867858E-4,-0.002908882,9.907519997902288,-0.307007277,-0.023164498,-0.021314417,0.014682573917348988,3.246979305330772E-4,-100.9205943,37.44789951324463,-51.6474791,Classroom
56,0,1.5,1,13.293999671936035,0.039636914,0,149.39999389648438,-86.9110051,40.4279913,-0.938292599,0.014916237425601598,-0.004361029,0.34549297175361116,0.002124071,0.031009900754371895,2.4359426452118216,9.932175443722652,-0.306919768,-0.023479572,-125.375,-57.57875271,-20.75354164,-18.94574581,-1.47E-04,-2.11E-04,-2.54E-04,0.014098889619401358,8.040906734836912E-4,-0.001817888,9.932175443722652,-0.306919768,-0.023479572,-0.021373723,0.014907935064611504,5.189234388594344E-5,-100.8383663,37.445337448120114,-51.58623501,Classroom
57,0,1.5,1,13.293999671936035,0.039636914,0,149.39999389648438,-86.9110051,40.4279913,-0.938234244,0.014784052732934072,-0.004283861,0.34565816313317677,0.002182945,0.030708129562943883,2.435591653712745,9.960757394438808,-0.304056903,-0.021445383,-117.1111111,-57.66464088,-20.69864161,-18.94281765,-7.56E-05,-2.70E-04,1.2602432838921407E-4,0.01378952,0.00154974,6.188369057710889E-5,9.960757394438808,-0.304056903,-0.021445383,-0.021302556,0.01484863,4.3144792734274584E-4,-100.9242542,37.50072555541992,-51.58416107,Classroom
58,0,1.5,1,13.293999671936035,0.039636914,0,149.39999389648438,-86.9110051,40.4279913,-0.938173221,0.014641707220557824,-0.004231547,0.3458304546990441,0.002188259,0.030404386571744112,2.435226347839948,9.963095081662669,-0.303104421,-0.0246513,-121.125,-57.58887894,-20.75305357,-18.99857164,-4.45E-06,-2.46E-04,-4.00E-05,0.002744443,1.8046232103144082E-4,-0.003575486,9.963095081662669,-0.303104421,-0.0246513,-0.02123139,0.014872351769828101,2.65392371412656E-4,-100.849102,37.44716743469238,-51.63893887,Classroom
59,0,1.5,1,13.293999671936035,0.039636914,0,149.39999389648438,-86.9110051,40.4279913,-0.938181706,0.014633606549677918,-0.004218527,0.3458078818992504,0.002206353,0.030380197339555593,2.435274307010243,9.959485461410967,-0.304472162,-0.023489736,-107.4444444,-57.60656883,-20.74548964,-18.95623758,-1.35E-04,2.965308472658824E-6,-9.93E-05,-6.09E-04,-0.001511525,-4.21E-04,9.959485461410967,-0.304472162,-0.023489736,-0.02144489,0.014955379457656041,2.0608680607588257E-4,-100.8669139,37.454365463256835,-51.59623924,Classroom
60,0,1.5,1,13.51200008392334,0.051887177,0,149.39999389648438,-86.9110106,40.427989,-0.938150727,0.014771728355509158,-0.004106835,0.3458873781447227,0.00251421,0.030561945222031612,2.4350987787430105,9.952719299538622,-0.301727968,-0.023443273,-104.875,-57.64658478,-20.7410976,-18.93037373,1.5271182369010954E-4,1.2921768939122558E-4,1.5111604275611732E-11,-0.003918813,0.002412147,0.001177119,9.952719299538622,-0.301727968,-0.023443273,-0.021226942,0.014942263888839919,3.0542361435856525E-4,-100.9068077,37.45851333618164,-51.570741,Classroom
61,0,1.5,1,13.51200008392334,0.051887177,0,149.39999389648438,-86.9110106,40.427989,-0.93822453,0.014794164210630274,-0.00418357,0.3456853020538404,0.002379102,0.030657678589369488,2.435531051413527,9.919925421,-0.306815619,-0.024674531,-117.7777778,-57.65366081,-20.76208166,-18.98990967,5.3375000947887456E-5,-2.25E-04,4.299655127185352E-5,-0.018775792,-0.001901936,-9.58E-04,9.919925421,-0.306815619,-0.024674531,-0.021326279,0.014587685,3.484201389229269E-4,-100.9135181,37.438261642456055,-51.63027695,Classroom
62,0,1.5,1,13.51200008392334,0.051887177,0,149.39999389648438,-86.9110106,40.427989,-0.938356747,0.014910631189213215,-0.004329251,0.3453194050534258,0.002174114,0.030977862281272712,2.4363120250331547,9.901102297514388,-0.309516256,-0.02283926,-114.4444444,-57.62120876,-20.73011759,-18.92793377,7.709722911703934E-5,8.302778276858978E-5,1.6160765764511472E-4,-0.009259011,-0.002313417,-0.00122138,9.901102297514388,-0.309516256,-0.02283926,-0.021302557,0.014896074,4.6703126903135077E-4,-100.8816766,37.47022525787354,-51.56744698,Classroom
63,0,1.5,1,13.51200008392334,0.051887177,0,149.39999389648438,-86.9110106,40.427989,-0.938638863,0.014195186104082946,-0.005317232,0.34456630673223326,-1.99E-04,0.030316034928687566,2.4379568424039673,9.899932000243549,-0.302009646,0.004082899,-104.25,-57.53458893,-20.77147566,-19.08470367,0.001298792,-0.004234417,0.002071247,-0.002166155,-0.001645272,0.002177202,9.899932000243549,-0.302009646,0.004082899,-0.020080862,0.010578629231867065,0.00237667,-100.7940799,37.42850131988526,-51.72409515,Classroom
64,0,1.5,1,13.51200008392334,0.051887177,0,149.39999389648438,-86.9110106,40.427989,-0.938829302,0.013244466440191546,-0.005999086,0.34407569829700063,-0.00215096,0.029000911,2.439037929,9.905572479,-0.286218402,0.021650443252068587,-117,-57.43662281,-20.79868151,-19.1981636,-5.93E-06,-6.29E-04,1.260242973074534E-4,0.002579921,0.001565295,1.1978435863568945E-6,9.905572479,-0.286218402,0.021650443252068587,-0.021385584,0.014184407,4.3144795842450654E-4,-100.6966016,37.40166145324707,-51.838531,Classroom
65,0,1.5,1,13.51200008392334,0.051887177,0,149.39999389648438,-86.9110106,40.427989,-0.938869034,0.013249037931989697,-0.006071081,0.34396584375390726,-0.002286444,0.029058778043655517,2.4392736467342933,9.910110186604621,-0.287057409,0.018396276,-102.75,-57.48444698,-20.74182968,-19.15253557,-6.52E-05,2.3722223648168508E-5,-1.63E-05,0.002354539,5.396057679815199E-4,-0.003791932,9.910110186604621,-0.287057409,0.018396276,-0.02144489,0.014836768384625032,2.8911459167008693E-4,-100.7446697,37.45863536834717,-51.79143913,Classroom
66,0,1.5,1,13.51200008392334,0.051887177,0,149.39999389648438,-86.9110106,40.427989,-0.938742156,0.013054988120944754,-0.005957164,0.3443213646273011,-0.002195184,0.0286168,2.438516792741794,9.940400975421795,-0.28246923,0.023181921196084254,-137.3333333,-57.45236092,-20.76659557,-19.14680168,1.0081945276520785E-4,-1.07E-04,1.4974654864664507E-4,0.016594997887472505,0.001626564,0.001888181,9.940400975421795,-0.28246923,0.023181921196084254,-0.021278834,0.014706296213332888,4.551701543816519E-4,-100.7125842,37.433747100830075,-51.78777912,Classroom
67,0,1.5,1,13.51200008392334,0.051887177,0,149.39999389648438,-86.9110106,40.427989,-0.93870994,0.012823202267506169,-0.005982759,0.3444174872440042,-0.002400046,0.028199398853969805,2.438316546597527,9.955649431469372,-0.279112308,0.024250560382763103,-144,-57.38635872,-20.78355354,-19.10092964,-4.15E-05,-9.49E-05,-4.45E-06,0.008752795,0.001580228,5.5849877665343796E-5,9.955649431469372,-0.279112308,0.024250560382763103,-0.021421167,0.014718157284468123,3.0097569162658986E-4,-100.6468265,37.41508133,-51.74263905,Classroom
68,0,1.5,1,13.51200008392334,0.051887177,0,149.39999389648438,-86.9110106,40.427989,-0.938906703,0.015578895932636581,-0.005687765,0.3437677157612947,2.9782259293124997E-5,0.033170733,2.4396363634329576,9.963597334704353,-0.330450549,0.001059927,-103.3333333,-57.51994881,-20.58493763,-19.06701363,-0.001797301,0.002114471,-0.006672332,0.004745373,6.464221156560457E-4,0.001674931,9.963597334704353,-0.330450549,0.001059927,-0.023176955,0.016927517,-0.006366908,-100.7799278,37.614307250976566,-51.70725895,Classroom
69,0,1.5,1,13.51200008392334,0.051887177,0,149.39999389648438,-86.9110106,40.427989,-0.938943609,0.016172585791899164,-0.005882611,0.3436402467269342,6.821391889664845E-5,0.034420017731710544,2.4399021111645744,9.958744937933764,-0.342545337,-0.001228355,-103.375,-57.61486496,-20.54113981,-19.04651758,1.364027882374606E-4,6.523611412826673E-4,7.857985227160807E-5,-0.001684337,5.259707714747457E-4,-4.72E-04,9.958744937933764,-0.342545337,-0.001228355,-0.021243251,0.015465407,3.8400350886767787E-4,-100.8753319,37.658593292236326,-51.68627506,Classroom
70,0,1.5,1,13.51200008392334,0.051887177,0,149.39999389648438,-86.9110106,40.427989,-0.938944643,0.016220012553108547,-0.005864852,0.343635556,1.3406290266184176E-4,0.034496923673500136,2.439910490535995,9.95570455,-0.344357379,2.294091563739642E-4,-108.3333333,-57.62804096,-20.57578766,-19.01833567,7.70972200750726E-5,-2.02E-04,1.8532989316086458E-4,-0.001885673,-6.18E-04,0.001648269,9.95570455,-0.344357379,2.294091563739642E-4,-0.021302557,0.014611407255446449,4.907534808119379E-4,-100.8881419,37.62394512176514,-51.65784904,Classroom
71,0,1.5,1,13.51200008392334,0.051887177,0,149.39999389648438,-86.9110106,40.427989,-0.939008796,0.016224009102409325,-0.005957121,0.3434584227580469,-4.31E-05,0.034567878373618265,2.4402903885517304,9.953811238112959,-0.344766828,-0.002976509,-110.625,-57.59156303,-20.58103367,-19.04456556,-5.40E-04,-1.19E-05,-1.47E-04,-3.88E-04,-4.46E-04,-0.003323535,9.953811238112959,-0.344766828,-0.002976509,-0.021919334,0.014801185071757697,1.586423576492997E-4,-100.8520299,37.61845531463623,-51.68444496,Classroom
72,0,1.5,1,13.51200008392334,0.051887177,0,149.39999389648438,-86.9110106,40.427989,-0.93901629,0.016139241731137906,-0.005993325,0.34344137872307046,-1.70E-04,0.03443352,2.4403297183583086,9.949963551123165,-0.342829923,0.003040395,-116.8888889,-57.58753693,-20.58457163,-19.05029972,2.668750160418957E-4,-8.30E-05,2.2091322693774856E-4,-0.001790139,8.323325694186016E-5,0.001434063,9.949963551123165,-0.342829923,0.003040395,-0.021112779,0.014730018,5.263368179795595E-4,-100.847638,37.614673080444334,-51.69017883,Classroom
73,0,1.5,1,13.51200008392334,0.051887177,0,149.39999389648438,-86.9110106,40.427989,-0.939019977,0.016004637462421527,-0.00590731,0.3434386753920213,-1.01E-04,0.034121499,2.4403362297317357,9.948536946223332,-0.339579495,-8.63E-04,-108.875,-57.55313324,-20.56139164,-19.05700962,6.52361308559052E-5,9.014445031513867E-4,0.002984552,-0.001564331,-3.82E-05,-0.001111908,9.948536946223332,-0.339579495,-8.63E-04,-0.021314418,0.015714490705382222,0.003289976,-100.8132342,37.63943932,-51.69652294,Classroom
74,0,1.5,1,13.51200008392334,0.051887177,0,149.39999389648438,-86.9110106,40.427989,-0.938624373,0.014676698465442773,-0.00496021,0.344592837,8.037709758178448E-4,0.030975260762769043,2.4378820183207686,9.947829172449204,-0.309315887,-0.00660059,-104.2222222,-57.55362083,-20.72511562,-19.06957556,4.447916979241429E-4,5.930555912042127E-5,8.376910146642296E-4,-0.001025413,-0.001167681,9.650448834505475E-4,9.947829172449204,-0.309315887,-0.00660059,-0.020934862,0.014872352,0.001143115,-100.8136001,37.474739418029785,-51.71055305,Classroom
75,45,1.5,1,13.039999961853027,0,0,149.39999389648438,-86.9110129,40.427996,-0.93860813,0.014668110993157313,-0.00492473,0.3446380145920133,8.660059318271945E-4,0.030934644881093386,2.437785037512918,9.947663714584795,-0.308284998,-0.009736814,-114.8888889,-57.55301079,-20.73511955,-18.96514366,2.9652779560210635E-5,-1.19E-05,7.857987657189369E-5,-2.09E-04,-2.63E-04,-8.57E-04,9.947663714584795,-0.308284998,-0.009736814,-0.021350001,0.014801185071757697,3.8400348456739224E-4,-100.811892,37.464491271972655,-51.60453518,Classroom
76,45,1.5,1,13.039999961853027,0,0,149.39999389648438,-86.9110129,40.427996,-0.938655074,0.014737682154818067,-0.004959618,0.344506625,8.440919223838278E-4,0.031089444165524928,2.4380643807568596,9.912685931307598,-0.311305067,-0.007855079,-111.75,-57.59144081,-20.76086168,-19.06042568,1.957083450973902E-4,-1.78E-04,-8.75E-05,-0.018998035,-0.002228837,2.5990928604620176E-4,9.912685931307598,-0.311305067,-0.007855079,-0.021183945,0.014635129,2.1794792355119604E-4,-100.851786,37.43972553253174,-51.70018307,Classroom
77,45,1.5,1,13.039999961853027,0,0,149.39999389648438,-86.9110129,40.427996,-0.938819592,0.015004512209158678,-0.005108635,0.34404436871409416,7.326229516855584E-4,0.031693562,2.4390472907286425,9.892256977488694,-0.315184691,-0.008389399,-112.5555556,-57.59351475,-20.77501368,-18.96355766,1.5271181473508477E-4,-8.22E-05,-8.22E-05,-0.010350897,-0.001061931,-9.95E-04,9.892256977488694,-0.315184691,-0.008389399,-0.021226942,0.014730817,2.2319418237132666E-4,-100.8530057,37.42471954345703,-51.60502296,Classroom
78,45,1.5,1,13.039999961853027,0,0,149.39999389648438,-86.9110129,40.427996,-0.938843221,0.015107875,-0.005091252,0.3439756168902499,8.341275303606487E-4,0.031875776,2.439190996503367,9.894603395924985,-0.315626085,-0.008017698,-115.25,-57.5220229,-20.76818146,-19.0075997,8.89583386806319E-5,-2.37E-05,-8.75E-05,-2.88E-04,1.0709450082871521E-5,3.155196691384015E-4,9.894603395924985,-0.315626085,-0.008017698,-0.021290695,0.014789323964454596,2.1794792355119604E-4,-100.7815137,37.432161293029786,-51.6468689,Classroom
79,45,1.5,1,13.039999961853027,0,0,149.39999389648438,-86.9110129,40.427996,-0.938887157,0.015057095,-0.005160879,0.34385687228545403,6.643418218144803E-4,0.031828404268593465,2.4394469654675826,9.899667906529695,-0.31446452,-0.008296474,-112.6666667,-57.60693485,-20.76903563,-19.02797361,1.482638978010532E-4,-3.80E-04,4.299653714378048E-5,0.002493349,7.763805898647864E-4,-0.001641998,9.899667906529695,-0.31446452,-0.008296474,-0.02123139,0.014433490609732067,3.484201530509999E-4,-100.867402,37.43008728027344,-51.66797512,Classroom
80,0,1.5,1,13.435999870300293,0.08130642,0,149.39999389648438,-86.911008,40.4279912,-0.938885791,0.014963542337267145,-0.005172988,0.3438645054414434,5.774601632209259E-4,0.031661016,2.439433118672047,9.904267598124383,-0.313442345,-0.006995522,-116.25,-57.54508083,-20.73475359,-18.93683962,1.8384723327330595E-4,-2.85E-04,1.3788543060620867E-4,0.002548894,2.8471373817295703E-4,-0.001197605,9.904267598124383,-0.313442345,-0.006995522,-0.021195806,0.014528379495282776,4.4330904877391977E-4,-100.805182,37.46619941711426,-51.5759869,Classroom
81,0,1.5,1,13.435999870300293,0.08130642,0,149.39999389648438,-86.911008,40.4279912,-0.938894936,0.014917033,-0.005186907,0.34384133485914437,5.185153698141786E-4,0.031583245,2.439483894885165,9.911600589752197,-0.313091642,-0.006925381,-131.6666667,-57.54947254,-20.75939764,-18.99430172,-8.90E-05,-4.03E-04,-1.71E-04,0.003489022,4.684519999235579E-5,-0.001801139,9.911600589752197,-0.313091642,-0.006925381,-0.021468612,0.014409768395125866,1.3492013795699166E-4,-100.8092085,37.442531242370606,-51.63418106,Classroom
82,0,1.5,1,13.435999870300293,0.08130642,0,149.39999389648438,-86.911008,40.4279912,-0.938957824,0.014978283401397825,-0.005255982,0.34366586804389954,4.249692750977153E-4,0.031745886,2.4398581680742284,9.907984622473856,-0.315068534,-0.005741032,-122.5,-57.47920113,-20.73682777,-19.05359365,8.89583386806319E-5,-3.08E-04,-4.45E-06,-0.001316765,-3.08E-04,-0.001286445,9.907984622473856,-0.315068534,-0.005741032,-0.021290695,0.014504657,3.0097570405929414E-4,-100.7397898,37.463515548706056,-51.69383915,Classroom
83,0,1.5,1,13.435999870300293,0.08130642,0,149.39999389648438,-86.911008,40.4279912,-0.93899214,0.015044077715465745,-0.005283953,0.34356875095552614,4.143654782593745E-4,0.03188873,2.4400643307028465,9.909796585,-0.31590486,-0.006019807,-107.7777778,-57.47737076,-20.75951946,-18.96550968,-0.00469107,0,-3.01E-04,0.001123438,5.548934913376003E-4,-0.001996102,9.909796585,-0.31590486,-0.006019807,-0.026070724,0.014813046206186698,4.44790732694193E-6,-100.7371063,37.440945320129394,-51.60477894,Classroom
84,0,1.5,1,13.435999870300293,0.08130642,0,149.39999389648438,-86.911008,40.4279912,-0.938985274,0.015173364710966938,-0.005197063,0.3435831868532792,6.67032905519732E-4,0.032071873328639464,2.4400283966249634,9.911445950998843,-0.317972443,-0.005996576,-106.75,-57.5071389,-20.8859116,-19.05383759,-3.74E-04,2.0163890100943232E-4,5.485765800983148E-5,8.84046832334648E-4,-2.89E-04,0.001020138,9.911445950998843,-0.317972443,-0.005996576,-0.021753279,0.015014685084591212,3.6028125583311744E-4,-100.7666294,37.314797248840335,-51.69335106,Classroom
85,0,1.5,1,13.435999870300293,0.08130642,0,149.39999389648438,-86.911008,40.4279912,-0.93901928,0.015203802147880197,-0.005213538,0.34348859838568246,6.537624380703514E-4,0.032140418,2.440229649727161,9.913214489094262,-0.320342037,-0.007297528,-105.8888889,-57.51275093,-20.92775761,-19.03041361,9.397650137543678E-5,-3.64E-04,-4.70E-05,0.00125023,-0.00125965,-9.64E-04,9.913214489094262,-0.320342037,-0.007297528,-0.021285677,0.014448887256618876,2.5843535583520023E-4,-100.7727299,37.272463455200196,-51.67004902,Classroom
86,0,1.5,1,13.435999870300293,0.08130642,0,149.39999389648438,-86.911008,40.4279912,-0.938991975,0.015071742779132232,-0.005172884,0.343569675,6.420961620729164E-4,0.031864363808655045,2.440058865593475,9.944359029,-0.314185744,-0.008342936,-108.5555556,-57.52495056,-20.90262564,-18.95465164,2.4315279239372722E-4,-1.66E-04,1.3788544247379003E-4,0.017163591477477435,0.002363236,-0.001889243,9.944359029,-0.314185744,-0.008342936,-0.021136501,0.014646990685859352,4.433090369063384E-4,-100.7851739,37.29759536743164,-51.59379894,Classroom
87,0,1.5,1,13.435999870300293,0.08130642,0,149.39999389648438,-86.911008,40.4279912,-0.93888902,0.014831109325066932,-0.005039118,0.34386338539493894,7.377495196335994E-4,0.031320178,2.439435046853371,9.963304122,-0.310097038,-0.0087611,-114.5,-57.47505291,-20.91470348,-18.96404568,1.6012500962513744E-4,-1.19E-04,1.3788543964817542E-4,0.009544632,0.001876128,-0.001338474,9.963304122,-0.310097038,-0.0087611,-0.021219529,0.014694435096987821,4.4330903973195305E-4,-100.7356418,37.28380935668945,-51.6057552,Classroom
88,0,1.5,1,13.435999870300293,0.08130642,0,149.39999389648438,-86.911008,40.4279912,-0.938868338,0.0146878,-0.005023607,0.34392623965022634,6.703448067057553E-4,0.031040293969286297,2.4393039050611476,9.964372736736408,-0.309516255,-0.007994467,-134.4444444,-57.51970451,-20.90018559,-19.02455769,2.0756945692147446E-4,-1.66E-04,4.2996539404272164E-5,0.001809213,-5.80E-05,-0.001236691,9.964372736736408,-0.309516255,-0.007994467,-0.021172084,0.014646990640649518,3.4842015079050823E-4,-100.7796843,37.30064533233642,-51.66321712,Classroom
89,0,1.5,1,13.435999870300293,0.08130642,0,149.39999389648438,-86.911008,40.4279912,-0.938907748,0.014687866316113657,-0.005052094,0.3438182152012019,6.132982637353458E-4,0.031060091,2.4395348007239184,9.959680085043304,-0.310329351,-0.005555182,-139.25,-57.47236881,-20.94861954,-19.01760365,5.337500320837914E-5,-7.12E-05,1.7346878020653447E-4,-0.001868572,-7.05E-04,6.349327910727668E-4,9.959680085043304,-0.310329351,-0.005555182,-0.021326279,0.014741879462906457,4.788923701180995E-4,-100.7317379,37.249893493652344,-51.65565292,Classroom
90,0,1.5,1,13.454000473022461,0.029602665454149246,0,149.39999389648438,-86.9110107,40.4279894,-0.938901247,0.014670813555639345,-0.005000195,0.3438374620039486,6.997043589577622E-4,0.030992356,2.439492850627714,9.948876435940083,-0.309111272,-0.008512927,-121.5555556,-57.49737865,-20.95874561,-18.97624559,1.719861214492217E-4,2.3722223648168508E-5,1.0230209852469343E-4,-0.005338048,-3.24E-04,-0.001391667,9.948876435940083,-0.309111272,-0.008512927,-0.021207667,0.014836768456960766,4.0772570991092947E-4,-100.7576021,37.24159732818603,-51.61685688,Classroom
91,0,1.5,1,13.454000473022461,0.029602665454149246,0,149.39999389648438,-86.9110107,40.4279894,-0.938972497,0.014795249834367372,-0.005009141,0.34363737384092463,7.618668763807894E-4,0.031232400951020926,2.4399166292357215,9.922614458695199,-0.313628195,-0.007553072,-116.625,-57.49615894,-20.95032761,-18.92720163,1.7939931803464312E-4,-7.41E-06,7.413194720515783E-5,-0.015897973,-0.002922252,5.481791800086938E-6,9.922614458695199,-0.313628195,-0.007553072,-0.021053473,0.014658851720826718,5.26336828716895E-4,-100.755528,37.24867332458496,-51.56732525,Classroom
92,0,1.5,1,13.454000473022461,0.029602665454149246,0,149.39999389648438,-86.9110107,40.4279894,-0.939108218,0.015034954551860545,-0.005090553,0.34325466167579577,7.608406125902406E-4,0.031738932,2.440728643565502,9.897879035727492,-0.316462413,-0.007576304,-113.6666667,-57.49432888,-20.95679367,-18.96221565,7.413197715667266E-6,-8.45E-05,-6.23E-05,-0.012172162,-0.001901326,-1.42E-04,9.897879035727492,-0.316462413,-0.007576304,-0.021219528,0.014575823969705012,3.958646020427057E-4,-100.754308,37.24354934692383,-51.60294891,Classroom
93,0,1.5,1,13.454000473022461,0.029602665454149246,0,149.39999389648438,-86.9110107,40.4279894,-0.93917982,0.015174281674898366,-0.005099628,0.3430524647814556,8.326382037179852E-4,0.032007097438411805,2.4411564243649972,9.898227469435016,-0.316555337,-0.008482324,-116.125,-57.57472679,-20.95593954,-18.9060957,-8.75E-05,1.2898955491904928E-4,-2.76E-04,-0.001142391,8.686144375106663E-4,-1.84E-04,9.898227469435016,-0.316555337,-0.008482324,-0.021314417,0.014789324009664429,1.8236458581845157E-4,-100.8351938,37.24415932,-51.54695084,Classroom
94,0,1.5,1,13.454000473022461,0.029602665454149246,0,149.39999389648438,-86.9110107,40.4279894,-0.939151581,0.015206744930205436,-0.004990057,0.3431299196986052,0.001063479,0.031992796736841016,2.440987832271136,9.901851598,-0.315765472,-0.011316541,-126.6666667,-57.55154675,-20.93971354,-18.94306171,5.873532119529465E-5,3.641589053306514E-4,-1.29E-04,0.001137743,0.001013695,-4.60E-04,9.901851598,-0.315765472,-0.011316541,-0.021168206,0.015024493349930989,3.2891774529931496E-4,-100.8120141,37.26111751556397,-51.58318504,Classroom
95,0,1.5,1,13.454000473022461,0.029602665454149246,0,149.39999389648438,-86.9110107,40.4279894,-0.939168891,0.015159387946201182,-0.004984688,0.3430846987418758,0.001039503,0.031900182,2.4410851094329242,9.905615028825778,-0.31518469,-0.0091328,-119,-57.54410469,-20.90225962,-18.88803968,-5.19E-05,2.223954002544718E-5,-9.79E-05,0.002019827,9.720684255211099E-4,0.001240979,9.905615028825778,-0.31518469,-0.0091328,-0.021278834,0.014682573953516853,3.602812637448383E-4,-100.804206,37.297229270935055,-51.52840698,Classroom
96,0,1.5,1,13.454000473022461,0.029602665454149246,0,149.39999389648438,-86.9110107,40.4279894,-0.939140372,0.015066538177864644,-0.004921872,0.3431677471086817,0.00109657,0.031682533,2.4409087144055412,9.934404382,-0.312002005,-0.009272188,-130.25,-57.48688667,-20.90543156,-18.89462763,-3.37E-04,3.424895683176888E-4,-2.40E-04,0.017224302569639336,0.002425794,0.001682087,9.934404382,-0.312002005,-0.009272188,-0.021563501,0.015002823995372045,2.1794791846508973E-4,-100.7471102,37.29552154541015,-51.53450691,Classroom
97,0,1.5,1,13.454000473022461,0.029602665454149246,0,149.39999389648438,-86.9110107,40.4279894,-0.939052611,0.014830176989792042,-0.004826729,0.3434194991889509,0.00112138,0.031172865,2.440375376673578,9.961407846617467,-0.30814561,-0.010526677,-119,-57.5392247,-20.93959146,-19.01516369,-5.19E-05,1.5271178026258657E-4,-1.48E-05,0.012610991024276584,0.002206751,7.075788453221321E-4,9.961407846617467,-0.30814561,-0.010526677,-0.021278834,0.014813046215228665,4.4330903973195305E-4,-100.7990821,37.261361351013186,-51.65589699,Classroom
98,0,1.5,1,13.454000473022461,0.029602665454149246,0,149.39999389648438,-86.9110107,40.4279894,-0.939020652,0.014748288,-0.004789308,0.34351091824688956,0.001138419,0.030993211417666918,2.440181530795051,9.961453071007362,-0.308651114,-0.011480947,-111.25,-57.44138077,-20.90042965,-19.01589569,-2.05E-04,2.2387847155151726E-4,-3.35E-04,0.001426604,3.2202508843060836E-4,1.2291034737836967E-4,9.961453071007362,-0.308651114,-0.011480947,-0.02144489,0.014931657270175739,7.561457205509532E-5,-100.7017263,37.29869331359863,-51.65675117,Classroom
99,0,1.5,1,13.454000473022461,0.029602665454149246,0,149.39999389648438,-86.9110107,40.4279894,-0.939104047,0.014763683,-0.004890239,0.3432807771904955,9.517508922868128E-4,0.031091716303264055,2.440673999416018,9.955126762390137,-0.309283944,-0.007762154,-125.6666667,-57.52836674,-20.91043354,-19.00210962,1.482639091035116E-5,-1.42E-04,-1.63E-05,-0.001763649,6.741788780804976E-4,0.001584758,9.955126762390137,-0.309283944,-0.007762154,-0.021290695,0.014670712846213753,2.891145854537348E-4,-100.7890778,37.28966522216797,-51.64333099,Classroom
100,0,1.5,1,13.454000473022461,0.029602665454149246,0,149.39999389648438,-86.9110107,40.4279894,-0.939110102,0.014658656125002115,-0.004917296,0.34326834123111466,8.2833305774347E-4,0.030913007,2.4407035216544437,9.950959687094086,-0.307634522,-0.008505555,-111,-57.52153458,-20.95557346,-19.03517176,4.4479180642774385E-6,-1.42E-04,1.9719099481273623E-4,-0.00301175,9.001690207175838E-5,-2.27E-04,9.950959687094086,-0.307634522,-0.008505555,-0.021302556,0.014670712810045885,5.026146028082347E-4,-100.7817579,37.24367126464844,-51.67456287,Classroom
101,0,1.5,1,13.454000473022461,0.029602665454149246,0,149.39999389648438,-86.9110107,40.4279894,-0.939145912,0.014708952526155027,-0.004928171,0.34316805207613604,8.391422791478848E-4,0.031015055,2.4409162998199463,9.951517243987148,-0.309005168,-0.009225725,-118,-57.48871681,-20.9018936,-18.94720963,-4.45E-06,4.7444447296337016E-5,7.413201671527717E-6,2.4137219179023816E-4,-2.59E-04,-8.43E-04,9.951517243987148,-0.309005168,-0.009225725,-0.021314417,0.014860490626357133,3.1283681757874715E-4,-100.7489401,37.297595252990725,-51.5884309,Classroom
102,0,1.5,1,13.454000473022461,0.029602665454149246,0,149.39999389648438,-86.9110107,40.4279894,-0.939142547,0.014670012997987779,-0.004909188,0.3431791865709916,8.484349434616641E-4,0.030928850119698394,2.4408929695203465,9.94992008,-0.308075916,-0.009341882,-136.375,-57.49274281,-20.94056757,-18.96904774,4.892708627434755E-5,-1.19E-04,1.9274311800243206E-5,-9.94E-04,1.2190394031191335E-4,-6.34E-04,9.94992008,-0.308075916,-0.009341882,-0.021266973,0.014694435024652088,3.2469793109820015E-4,-100.7522337,37.26014148712158,-51.60892708,Classroom
103,0,1.5,1,13.454000473022461,0.029602665454149246,0,149.39999389648438,-86.9110107,40.4279894,-0.939153875,0.014716598679884695,-0.004866328,0.3431468064395281,9.599062351089043E-4,0.030986986678236954,2.4409598203805776,9.949379967254343,-0.309864725,-0.009202494,-124.1111111,-57.51921677,-20.95301155,-18.9297637,1.3215445617858606E-4,2.2319419076666236E-4,1.4096475877942375E-4,-2.72E-04,-0.001431256,3.3433778354754817E-4,9.949379967254343,-0.309864725,-0.009202494,-0.0211917,0.015036240327530183,4.4638837481705617E-4,-100.7789521,37.24647720336914,-51.56964329,Classroom
104,0,1.5,1,13.454000473022461,0.029602665454149246,0,149.39999389648438,-86.9110107,40.4279894,-0.939160591,0.014724611521707577,-0.004839361,0.34312846504368827,0.001015478,0.030983548,2.4409980403566824,9.944771387044666,-0.308238536,-0.010410521,-124.375,-57.5043327,-20.93702965,-18.95074768,5.6340281164400206E-5,-5.93E-05,3.113542418945038E-5,-0.002158369,1.7463350758969206E-4,-2.31E-04,9.944771387044666,-0.308238536,-0.010410521,-0.021255112,0.014753740633503326,3.365590423571615E-4,-100.7643123,37.263679351806644,-51.59062698,Classroom
105,45,1.5,1,13.38700008392334,0,0,149.39999389648438,-86.9110104,40.4279888,-0.939203351,0.014758806368245662,-0.004863555,0.34300959486405824,9.895648996038273E-4,0.031064525,2.4412510719114136,9.946444094759746,-0.308981936,-0.01038729,-131.8888889,-57.5354427,-20.90835947,-18.94769754,1.0823264822038342E-4,-2.37E-05,-9.93E-05,2.8975958963042326E-4,2.1301108656577694E-4,-4.67E-04,9.946444094759746,-0.308981936,-0.01038729,-0.021207667,0.014789323991580495,2.060868145527264E-4,-100.7954221,37.291495399475096,-51.58843094,Classroom
106,45,1.5,1,13.38700008392334,0,0,149.39999389648438,-86.9110104,40.4279888,-0.939277373,0.014884888,-0.004912158,0.34280067277186127,9.77799500388464E-4,0.031334982,2.441694461026238,9.919135538119715,-0.313465575,-0.009945895,-108.4444444,-57.5033567,-20.94068964,-19.0001576,3.706597953636959E-5,-1.07E-04,-9.93E-05,-0.016037895,-0.00192315,-1.53E-04,9.919135538119715,-0.313465575,-0.009945895,-0.021278834,0.014706296168123056,2.0608680551075965E-4,-100.763336,37.26087337493897,-51.64028099,Classroom
107,45,1.5,1,13.38700008392334,0,0,149.39999389648438,-86.9110104,40.4279888,-0.939447774,0.015110969136568527,-0.005082926,0.3423210020782878,7.956962460579658E-4,0.031877306588355775,2.4427152675332375,9.894068626,-0.318084358,-0.009157148,-133.125,-57.52531666,-20.90421162,-18.92854366,1.556770949515975E-4,-3.68E-04,-1.35E-04,-0.011654391,-0.002089003,-0.001194674,9.894068626,-0.318084358,-0.009157148,-0.021160223,0.014445351707993203,1.7050347229899857E-4,-100.7850526,37.297229270935055,-51.56805702,Classroom
108,45,1.5,1,13.38700008392334,0,0,149.39999389648438,-86.9110104,40.4279888,-0.939528659,0.015171144,-0.005152454,0.34209528449669624,6.985507591274902E-4,0.032038186,2.443196359189969,9.895509377266597,-0.317229044,-0.007994467,-129.5555556,-57.56008682,-20.97314154,-18.9683157,1.838472349686747E-4,-7.56E-05,2.4463544436956495E-4,-4.79E-04,-2.27E-04,-8.86E-04,9.895509377266597,-0.317229044,-0.007994467,-0.021112778,0.014706296122913222,5.500590478440801E-4,-100.8205542,37.226347274780274,-51.60746273,Classroom
109,45,1.5,1,13.38700008392334,0,0,149.39999389648438,-86.9110104,40.4279888,-0.939468168,0.015167546693633483,-0.005025857,0.3422634043161151,9.398021462861701E-4,0.031944611,2.4428351434689124,9.899993063,-0.31662503,-0.009922664,-139.5,-57.49896484,-20.91689959,-18.89901968,-6.38E-05,1.5715971075956828E-4,-1.71E-04,0.00177364,2.7802731226948856E-4,-6.58E-04,9.899993063,-0.31662503,-0.009922664,-0.021290695,0.014872351733660236,1.3492013174063952E-4,-100.7593098,37.281979408264164,-51.53963085,Classroom
110,45,1.5,1,13.38700008392334,0,0,149.39999389648438,-86.9110104,40.4279888,-0.939488479,0.015181765403345373,-0.005010633,0.3422072370654171,9.762511280075946E-4,0.031960973,2.442954019435401,9.903849426,-0.315417003,-0.009969126,-120.1111111,-57.54325062,-20.96691959,-18.88633165,4.2996538839149244E-5,-1.04E-05,1.9274322537578716E-5,0.002068992,9.400673861642485E-4,-6.11E-05,9.903849426,-0.315417003,-0.009969126,-0.021183945,0.014694435060819954,3.2469792036086465E-4,-100.8029862,37.2340332,-51.526577,Classroom
111,45,1.5,1,13.38700008392334,0,0,149.39999389648438,-86.9110104,40.4279888,-0.939459839,0.015047829356402732,-0.004967792,0.34229236354048437,9.67895524249448E-4,0.031679829,2.442774699,9.930876046708487,-0.312629249,-0.009550963,-120.875,-57.51665501,-20.92763552,-18.91805168,-4.70E-05,1.057235500551402E-4,1.007440285040782E-11,0.015687804955702562,0.001787702,-3.39E-05,9.930876046708487,-0.312629249,-0.009550963,-0.02127393,0.014801299118866714,3.054236193957667E-4,-100.776268,37.274415283203126,-51.55902916,Classroom
112,45,1.5,1,13.38700008392334,0,0,149.39999389648438,-86.9110104,40.4279888,-0.939372284,0.01484831,-0.00487208,0.3425426749349798,0.001019452,0.031239046,2.4422437079901833,9.958759576371573,-0.309493026,-0.009411575,-124.5555556,-57.49176678,-20.93666365,-18.96770565,-4.00E-05,1.467812441298467E-4,1.92743168863495E-5,0.013243795598594888,0.001415006,8.062336557698481E-4,9.958759576371573,-0.309493026,-0.009411575,-0.021266973,0.01484863,3.2469792601209387E-4,-100.7510142,37.26392341613769,-51.60709686,Classroom
113,45,1.5,1,13.38700008392334,0,0,149.39999389648438,-86.9110104,40.4279888,-0.939336248,0.014821521,-0.004803845,0.3426436171369645,0.001132695,0.031141825,2.442027617426752,9.960318898691714,-0.309469794,-0.010410521,-120.625,-57.55325493,-20.97326347,-18.96123959,-5.19E-05,2.060868015548992E-4,-1.59E-04,0.00263216,8.502614150926905E-4,9.466776244559334E-4,9.960318898691714,-0.309469794,-0.010410521,-0.021278834,0.014907935091737405,1.467812503461988E-4,-100.8133557,37.22707935333252,-51.60075302,Classroom
114,45,1.5,1,13.38700008392334,0,0,149.39999389648438,-86.9110104,40.4279888,-0.939385127,0.014758295813593472,-0.004873353,0.3425113480646633,9.543160140487248E-4,0.031070801,2.4423124859633956,9.957615426443155,-0.310259657,-0.008784331,-127.8888889,-57.58058289,-20.9330035,-18.93391153,7.857987092066448E-5,8.599304603141489E-5,1.4974654582103046E-4,-7.65E-04,-6.26E-04,7.981519730201046E-4,9.957615426443155,-0.310259657,-0.008784331,-0.021148362,0.014789323973496563,4.551701572072665E-4,-100.8400741,37.267705307006835,-51.57427887,Classroom
115,45,1.5,1,13.38700008392334,0,0,149.39999389648438,-86.9110104,40.4279888,-0.939420163,0.014797520353594452,-0.004882221,0.34241338349083095,9.612671113166126E-4,0.031150682295844393,2.4425204564066765,9.936042137516354,-0.311467685,-0.010201439,-119.625,-57.53397869,-20.94386154,-18.85717373,5.4857652358602264E-5,4.151387386548432E-5,4.2996538274026324E-5,-0.011214886,-0.00138114,-5.61E-04,9.936042137516354,-0.311467685,-0.010201439,-0.021172084,0.014753740642545293,3.484201519207541E-4,-100.794202,37.25635948181152,-51.49534481,Classroom
116,45,1.5,1,13.38700008392334,0,0,149.39999389648438,-86.9110104,40.4279888,-0.939469557,0.014857164159127809,-0.004896145,0.3422750937707216,9.713891828071001E-4,0.031272459648621895,2.442813951992294,9.919460599239056,-0.311274016,-0.008466911,-116.1111111,-57.54544678,-20.96923761,-18.94708771,1.9274308409505676E-5,1.853298547325059E-4,1.497465497768909E-4,-0.01096094,-4.84E-04,0.001243168,9.919460599239056,-0.311274016,-0.008466911,-0.021207667,0.014884213,4.5517015325140605E-4,-100.8057918,37.230495338439944,-51.58660103,Classroom
117,45,1.5,1,13.38700008392334,0,0,149.39999389648438,-86.9110104,40.4279888,-0.939539325,0.015052109513684962,-0.004909923,0.34207475590474395,0.001072264,0.031648497956181035,2.4432364644356146,9.902316167516616,-0.317716901,-0.011270079,-112.1111111,-57.53336891,-20.96277161,-18.91378174,-9.93E-05,8.747568387917958E-5,-1.23E-04,-0.007908756,-0.003687192,-1.47E-04,9.902316167516616,-0.317716901,-0.011270079,-0.021326278,0.014789323973496563,1.8236458694869743E-4,-100.7933481,37.237327346801756,-51.55317314,Classroom
118,45,1.5,1,13.38700008392334,0,0,149.39999389648438,-86.9110104,40.4279888,-0.939658896,0.015150923987181441,-0.00503299,0.3417400214278582,8.972056263162601E-4,0.031918746,2.4439500767050437,9.897530509430227,-0.314859453,-0.007367222,-107.25,-57.53849281,-20.97619146,-18.92415171,7.4132180600924396E-6,-2.48E-04,-1.23E-04,-0.003007935,0.001373093,0.001177601,9.897530509430227,-0.314859453,-0.007367222,-0.021219529,0.014504657280676573,1.8236457056013271E-4,-100.7981061,37.22305335998535,-51.56464104,Classroom
119,45,1.5,1,13.38700008392334,0,0,149.39999389648438,-86.9110104,40.4279888,-0.939609394,0.015143065677178137,-0.004940215,0.34187780364045817,0.001070943,0.031840392397445384,2.4436545186829797,9.902920167,-0.315184691,-0.012292255,-102.3333333,-57.50543079,-20.94459356,-18.96855967,1.1416321430463815E-4,2.3722223648168508E-4,2.0905211115780387E-4,0.001157224,2.0174841278965033E-4,-0.001517771,9.902920167,-0.315184691,-0.012292255,-0.021112779,0.015050268415542483,5.144757101113356E-4,-100.7661419,37.25611526489258,-51.60843903,Classroom
120,45,1.5,1,1600,0,0,149.39999389648438,-86.9080931,40.4347685,-0.939858731,0.015952330691596635,-0.005587402,0.34114303468511653,3.803779873036407E-4,0.033804088,2.4452173847418566,9.905109655509875,-0.330494107,-0.003040395,-86,-57.5259269,-20.80844162,-19.00662371,-2.70E-04,-0.001691577,-0.003688578,0.001038395,0.004667841,6.739568570292948E-4,9.905109655509875,-0.330494107,-0.003040395,-0.021497125,0.013121469121520372,-0.003383154,-100.7855401,37.39116939544678,-51.64723511,Classroom
121,45,1.5,1,1600,0,0,149.39999389648438,-86.9080931,40.4347685,-0.940153746,0.016420045035701353,-0.006326366,0.3402957262344731,-7.21E-04,0.035187611,2.4470304702092145,9.925065364652466,-0.350217472,0.006008192,-74.77777778,-57.55349907,-20.7313376,-18.99503368,-3.84E-04,-9.49E-05,-4.00E-05,0.012203133221968863,-0.001185253,-0.001066144,9.925065364652466,-0.350217472,0.006008192,-0.021610946,0.014718157311594024,2.6539239401757284E-4,-100.813844,37.46851734161377,-51.6358889,Classroom
122,45,1.5,1,1600,0,0,149.39999389648438,-86.9080931,40.4347685,-0.940040954,0.016323461314862214,-0.006172598,0.34061478671518347,-4.85E-04,0.034901478300684866,2.446349354623591,9.955338691,-0.348591281,0.004713048,-89.75,-57.49994061,-20.76744961,-18.9810037,9.044098670060918E-5,5.930555912042127E-5,1.9274307844382756E-5,0.014486423973898285,-0.001399806,-2.47E-05,9.955338691,-0.348591281,0.004713048,-0.021136501,0.014872351787912035,3.2469793505406064E-4,-100.7601643,37.43325939178467,-51.619785,Classroom
123,45,1.5,1,1600,0,0,149.39999389648438,-86.9080931,40.4347685,-0.939984158,0.016247721352768175,-0.006109346,0.3407761793113449,-4.12E-04,0.034715966511409256,2.4460058003953358,9.957098414597002,-0.344967199,0.003992877,-97.88888889,-57.49554874,-20.76452156,-19.0235817,-1.82E-04,6.642222621487182E-4,-1.11E-04,0.003183106,8.325163021828364E-4,-2.16E-05,9.957098414597002,-0.344967199,0.003992877,-0.021409307,0.015477268432167549,1.942256727771273E-4,-100.7547961,37.43582118988037,-51.66443703,Classroom
124,45,1.5,1,1600,0,0,149.39999389648438,-86.9080931,40.4347685,-0.939951832,0.016344769957285482,-0.006026326,0.34086221485462004,-1.86E-04,0.034841909,2.4458180608101263,9.956745056005625,-0.347669653,0.003359155,-88.375,-57.52836697,-20.73853561,-18.9630698,1.734687734250594E-4,-4.27E-04,-1.63E-05,0.001229564,-2.79E-04,0.001688448,9.956745056005625,-0.347669653,0.003359155,-0.021053473,0.014386046162435731,2.89114584323489E-4,-100.7888341,37.4613192,-51.6023391,Classroom
125,45,1.5,1,1600,0,0,149.39999389648438,-86.9080931,40.4347685,-0.939989358,0.016292389,-0.00609128,0.3407600990776877,-3.48E-04,0.034787686053410316,2.4460384938323383,9.950076779115546,-0.345245975,0.004085803,-86.66666667,-57.53812683,-20.78135757,-19.01089365,-2.82E-05,-3.56E-05,-1.63E-05,-0.003097043,0.001324494,2.6522809639573097E-4,9.950076779115546,-0.345245975,0.004085803,-0.021255112,0.014777462848109527,2.891145775420139E-4,-100.7982278,37.41886325836182,-51.65077293,Classroom
126,45,1.5,1,1600,0,0,149.39999389648438,-86.9080931,40.4347685,-0.939995763,0.016241072649949964,-0.006105956,0.34074457669721064,-4.11E-04,0.034701151140395875,2.4460731339686124,9.952391152243012,-0.344223798,0.003249476,-82,-57.56630867,-20.7552495,-18.90511978,1.6160766894757314E-4,1.779166773612638E-4,1.971910095059322E-4,2.1414154941595874E-4,7.892601119661795E-4,2.1809070072706464E-4,9.952391152243012,-0.344223798,0.003249476,-0.021065334,0.014990962851901077,5.026145881150388E-4,-100.8266544,37.444605331420895,-51.54451103,Classroom
127,45,1.5,1,1600,0,0,149.39999389648438,-86.9080931,40.4347685,-0.939987427,0.016169391011873497,-0.006097677,0.340771181,-4.44E-04,0.034560744,2.4460179458544093,9.946153714818863,-0.345408594,0.006827095,-106.2222222,-57.50909065,-20.79233755,-18.9842975,-8.75E-05,1.6605556553717955E-4,9.044098952622379E-5,-0.003250641,-0.001211135,0.001547572,9.946153714818863,-0.345408594,0.006827095,-0.021314417,0.014979101753639944,3.958645952612306E-4,-100.7687042,37.40763946533203,-51.62417713,Classroom
128,45,1.5,1,1600,0,0,149.39999389648438,-86.9080931,40.4347685,-0.93999687,0.016198513,-0.006072947,0.34074404205267245,-3.78E-04,0.034598619,2.446074332182224,9.941089176,-0.345309861,0.00509346,-83.55555556,-57.56362473,-20.7540296,-18.96916967,3.524118465765451E-5,5.756060709245503E-4,0.002231942,-0.003223768,-9.13E-04,0.001708711,9.941089176,-0.345309861,0.00509346,-0.021191701,0.015388652306193342,0.002537366,-100.8237261,37.447167510986326,-51.609781,Classroom
129,45,1.5,1,1600,0,0,149.39999389648438,-86.9080931,40.4347685,-0.939530799,0.014848076575661747,-0.005052422,0.34210481516365865,6.655660046499621E-4,0.031362456405191745,2.443180695320796,9.943923358,-0.310785265,-0.010549909,-91.25,-57.55837864,-20.87371161,-18.95879965,1.1416322391172781E-4,2.846666837780221E-4,0.001240969,8.402333676236347E-4,0.001269339,-0.003853913,9.943923358,-0.310785265,-0.010549909,-0.021112779,0.015097712871880786,0.001546392,-100.8184802,37.32602123260498,-51.59892288,Classroom
130,45,1.5,1,13.291000366210938,0,0,149.39999389648438,-86.9110085,40.4279897,-0.939493906,0.014721318220412269,-0.005032562,0.34221212985446153,6.197953858928195E-4,0.031110596,2.442954512475764,9.947567893,-0.310306121,-0.004416849,-126.2222222,-57.47932266,-20.94508162,-19.02882759,1.7346878020653447E-4,-2.37E-05,1.7346878133678032E-4,0.002250523,-6.80E-04,0.001828612,9.947567893,-0.310306121,-0.004416849,-0.021053473,0.014789323946370662,4.7889236898785364E-4,-100.7395459,37.255261192321775,-51.66724308,Classroom
131,45,1.5,1,13.291000366210938,0,0,149.39999389648438,-86.9110085,40.4279897,-0.939514141,0.014779417,-0.005033069,0.34215404628549967,6.566951237844972E-4,0.031220183843403186,2.4430769184260694,9.925930736134353,-0.312211085,-0.006321814,-118.5,-57.53446671,-20.95508562,-19.00442768,9.044098613548627E-5,-2.37E-05,7.413207322756931E-6,-0.013292989,-0.001683273,2.8570787981152534E-4,9.925930736134353,-0.312211085,-0.006321814,-0.021136501,0.014789323964454596,3.1283681192751793E-4,-100.7948116,37.24501327514648,-51.64528316,Classroom
132,45,1.5,1,13.291000366210938,0,0,149.39999389648438,-86.9110085,40.4279897,-0.93960503,0.014971614679665242,-0.005088867,0.3418951951763005,6.747203234818231E-4,0.031619794,2.4436252256041593,9.896763884905473,-0.314952378,-0.007622766,-120.7777778,-57.5181189,-20.97094559,-18.93647373,4.299653375304295E-5,-1.19E-04,-1.35E-04,-0.013290785,-0.001372007,-8.57E-04,9.896763884905473,-0.314952378,-0.007622766,-0.021183945,0.014694435033694055,1.705034728641215E-4,-100.7779758,37.22805534362793,-51.57671913,Classroom
133,45,1.5,1,13.291000366210938,0,0,149.39999389648438,-86.9110085,40.4279897,-0.93964108,0.015044904,-0.005085604,0.34179292633695507,7.275566402189795E-4,0.031755387,2.4438412328368253,9.896694339,-0.314587156,-0.007638626,-119,-57.59314877,-20.94056763,-18.91134169,7.413216364723675E-6,7.116667094450552E-5,7.857988504873751E-5,-0.001289349,-1.43E-05,-4.11E-04,9.896694339,-0.314587156,-0.007638626,-0.021219529,0.014884212840963336,3.840034760905484E-4,-100.8528841,37.26026329040528,-51.55146488,Classroom
134,45,1.5,1,13.291000366210938,0,0,149.39999389648438,-86.9110085,40.4279897,-0.9396285,0.015046310195138732,-0.005039523,0.34182813329604067,8.163486106673852E-4,0.031726496,2.4437650476844563,9.903059561275741,-0.3135585,-0.006670284,-117.6666667,-57.51397079,-20.96765148,-18.92964165,-1.94E-04,1.1861111824084254E-4,-7.56E-05,0.002812691,5.108242474713372E-4,0.001608152,9.903059561275741,-0.3135585,-0.006670284,-0.021421167,0.014931657306343606,2.298090252030677E-4,-100.7740717,37.23232528686523,-51.57086311,Classroom
135,45,1.5,1,13.291000366210938,0,0,149.39999389648438,-86.9110085,40.4279897,-0.939667991,0.015089678162148276,-0.005054357,0.34171745152149385,8.143879262983655E-4,0.031818264,2.444000091367555,9.908681499147878,-0.315672548,-0.009574195,-120.625,-57.5460569,-20.99290552,-18.90536369,1.4974654525590754E-4,4.7444447296337016E-5,-9.93E-05,0.002868032,6.937344097396702E-5,-0.001567594,9.908681499147878,-0.315672548,-0.009574195,-0.021077195,0.014860491,2.0608680833637425E-4,-100.8065234,37.207559204101564,-51.54548676,Classroom
136,45,1.5,1,13.291000366210938,0,0,149.39999389648438,-86.9110085,40.4279897,-0.939619983,0.014965295240066005,-0.004987001,0.34185586826315206,8.605896999372296E-4,0.031538272764786934,2.4437064638415587,9.940313829959017,-0.309051631,-0.007065215,-111.1111111,-57.51031071,-20.92373159,-18.87657171,-1.47E-04,5.930555912042127E-5,-3.72E-04,0.018300954577992263,0.003432031,0.001785922,9.940313829959017,-0.309051631,-0.007065215,-0.021373723,0.014872351715576302,-6.67E-05,-100.7699238,37.27526931762695,-51.51620701,Classroom
137,45,1.5,1,13.291000366210938,0,0,149.39999389648438,-86.9110085,40.4279897,-0.939544031,0.01482394,-0.004889498,0.34207211950650585,9.543701738808663E-4,0.031205661,2.4432467199288883,9.964178196434835,-0.308563776,-0.009272188,-137.3333333,-57.52434074,-20.98168161,-18.98637163,1.3992226181121973E-11,1.2921768939122558E-4,-4.70E-05,0.011724848,0.002714058,1.667574979364872E-4,9.964178196434835,-0.308563776,-0.009272188,-0.021226942,0.014942263879884895,2.5843536814835924E-4,-100.7839536,37.21902721405029,-51.62515285,Classroom
138,45,1.5,1,13.291000366210938,0,0,149.39999389648438,-86.9110085,40.4279897,-0.93949969,0.014647037,-0.004842544,0.3422021819549857,9.257934424682584E-4,0.030840915275140872,2.442972511921114,9.962142592494928,-0.306937583,-0.007762154,-125.625,-57.52263317,-20.9576474,-18.82447765,5.485765009811058E-5,5.930555912042127E-5,1.3788543738768371E-4,-4.83E-04,5.365346820609084E-4,0.001540728,9.962142592494928,-0.306937583,-0.007762154,-0.021172084,0.014872351769828101,4.4330904199244475E-4,-100.7823676,37.243305358886715,-51.46496689,Classroom
139,45,1.5,1,13.291000366210938,0,0,149.39999389648438,-86.9110085,40.4279897,-0.939509871,0.014728302344028811,-0.004790927,0.3421714705170937,0.001077477,0.030958347329960285,2.4430347993535904,9.951049665802891,-0.308633468,-0.010875147,-136.3333333,-57.51360489,-20.97850956,-18.91536762,-1.35E-04,4.0327780201886463E-4,-2.06E-04,-0.003308055,-2.43E-04,-7.18E-05,9.951049665802891,-0.308633468,-0.010875147,-0.021361862,0.015216324044373428,9.933679909400135E-5,-100.7734619,37.22256511688232,-51.55512493,Classroom
140,0,1.5,1,13.178999900817871,0.049778226763010025,0,149.39999389648438,-86.9110137,40.4279856,-0.939527237,0.014733338846092663,-0.004798118,0.34212345376755426,0.001065823,0.030972780876802008,2.443137124904151,9.950132,-0.308192073,-0.009156031,-127.625,-57.4967688,-20.96521151,-18.9780757,-7.56E-05,-3.56E-05,-4.00E-05,-0.001798972,2.6765957619380025E-4,0.001529918,9.950132,-0.308192073,-0.009156031,-0.021302557,0.014777462857151494,2.653923623706892E-4,-100.7572365,37.23342342376709,-51.61807705,Classroom
141,0,1.5,1,13.178999900817871,0.049778226763010025,0,149.39999389648438,-86.9110137,40.4279856,-0.939629625,0.014713514,-0.004948852,0.3418408487606974,7.595441688995953E-4,0.031038918089374756,2.4437430761392833,9.933883767861586,-0.310422722,-0.00759261,-114.3333333,-57.54056667,-20.96655352,-18.94476963,-4.45E-06,-1.68E-04,2.223958500923173E-4,-0.011106639,-0.001420461,8.10565616826988E-5,9.933883767861586,-0.310422722,-0.00759261,-0.02123139,0.014765601740806426,4.0772570595506904E-4,-100.8001804,37.23378921508789,-51.58416103,Classroom
142,0,1.5,1,13.178999900817871,0.049778226763010025,0,149.39999389648438,-86.9110137,40.4279856,-0.939734929,0.014901036,-0.005028814,0.3415419520104973,7.27500469826198E-4,0.031446321189258865,2.444377271874437,9.90231613,-0.313814045,-0.006693515,-118.125,-57.58119274,-20.99461361,-18.93622963,-7.56E-05,9.637157595490367E-5,5.337500320837914E-5,-0.014630207,-0.001983227,6.009086387828716E-4,9.90231613,-0.313814045,-0.006693515,-0.021302556,0.01506213,2.0608679759903875E-4,-100.841416,37.20633941650391,-51.57525497,Classroom
143,0,1.5,1,13.178999900817871,0.049778226763010025,0,149.39999389648438,-86.9110137,40.4279856,-0.939757619,0.015113050054794954,-0.004979017,0.34147094812208006,9.63676607267913E-4,0.031810948,2.4445223808288574,9.902316148998668,-0.316950268,-0.010735759,-131.6666667,-57.50055077,-20.95886755,-18.97417168,-6.38E-05,-9.34E-05,8.89583409411236E-5,-0.001778806,-0.001762194,-0.001159916,9.902316148998668,-0.316950268,-0.010735759,-0.021290695,0.014872351760786134,2.416701308107998E-4,-100.7608958,37.24220737457276,-51.61502705,Classroom
144,0,1.5,1,13.178999900817871,0.049778226763010025,0,149.39999389648438,-86.9110137,40.4279856,-0.939794547,0.015148404126679435,-0.005013462,0.34136721810090886,9.195539547645858E-4,0.031901036,2.444743272,9.906242232,-0.3166018,-0.008598481,-133.625,-57.53141674,-20.98082756,-18.99112968,-4.00E-05,-2.48E-04,8.89583386806319E-5,0.001790028,2.1681623551452045E-4,4.257184760735452E-4,9.906242232,-0.3166018,-0.008598481,-0.021266973,0.014718157302552057,2.4167014380862702E-4,-100.7915185,37.21805130004883,-51.63039902,Classroom
145,0,1.5,1,13.178999900817871,0.049778226763010025,0,149.39999389648438,-86.9110137,40.4279856,-0.939793941,0.015062366693633275,-0.005016971,0.34137264443832693,8.543425491667416E-4,0.031741671,2.4447337724630116,9.910659058580121,-0.313578826,-0.009620657,-138.6666667,-57.53971302,-20.95288952,-18.89560373,-1.47E-04,-9.34E-05,1.1268056232880041E-4,0.002587115,7.033643213290613E-4,-7.75E-04,9.910659058580121,-0.313578826,-0.009620657,-0.021373723,0.014872351769828101,2.653923623706892E-4,-100.7992041,37.248063278198245,-51.53414089,Classroom
146,45,1.5,1,12.991999626159668,0.11154697090387344,264.54095458984375,149.39999389648438,-86.9110211,40.4279851,-0.939768949,0.015023877,-0.004968512,0.34144386706443935,9.215748835301313E-4,0.031636156,2.4445817722724033,9.919437426965214,-0.313837275,-0.008621712,-130.3333333,-57.53849274,-20.98570751,-18.92024769,-5.87E-05,8.222947284453906E-5,-4.70E-05,0.004187144,1.7130489532764142E-4,4.737935064790341E-4,9.919437426965214,-0.313837275,-0.008621712,-0.021285677,0.015047987430499723,1.0572355733109781E-4,-100.7984719,37.21158535003662,-51.5604929,Classroom
147,45,1.5,1,12.991999626159668,0.11154697090387344,264.54095458984375,149.39999389648438,-86.9110211,40.4279851,-0.939778669,0.014944572,-0.004986085,0.34142033162626245,8.335413515242269E-4,0.031499087,2.4446340972937426,9.916742685929085,-0.312420169,-0.008296474,-131.875,-57.47639496,-21.01218159,-18.95477373,-1.47E-04,-1.29E-04,1.3640278597696893E-4,-4.75E-04,1.9114341550660366E-4,4.9404745686401444E-5,9.916742685929085,-0.312420169,-0.008296474,-0.021373723,0.014836768393666998,2.8911459449570157E-4,-100.7366178,37.18755153656006,-51.59416504,Classroom
148,45,1.5,1,12.991999626159668,0.11154697090387344,264.54095458984375,149.39999389648438,-86.9110211,40.4279851,-0.939807188,0.014931513014638308,-0.005011123,0.3413420200926586,7.749048668610891E-4,0.031491702,2.444801740276003,9.915325553671828,-0.313233263,-0.007762154,-125.3333333,-57.5088467,-21.01596359,-18.95440762,-4.00E-05,-1.53E-04,6.52361150324634E-5,-4.40E-04,-7.41E-04,1.3506754292446432E-6,9.915325553671828,-0.313233263,-0.007762154,-0.021266973,0.014813046179060797,2.1794792072558144E-4,-100.7689481,37.18413547515869,-51.59428699,Classroom
149,45,1.5,1,12.991999626159668,0.11154697090387344,264.54095458984375,149.39999389648438,-86.9110211,40.4279851,-0.939833592,0.014944188459550293,-0.005030866,0.34126848532158194,7.43974269779164E-4,0.031529075,2.444958499334391,9.917233439325129,-0.313581733,-0.008575249,-130.5,-57.53959076,-20.9726535,-18.93622972,-1.82E-04,-9.34E-05,2.0756945692147446E-4,5.531773983853534E-4,-6.90E-04,-0.001118183,9.917233439325129,-0.313581733,-0.008575249,-0.021409306,0.014872351760786134,3.6028125696336324E-4,-100.7992039,37.227201271057126,-51.57708504,Classroom
150,45,1.5,1,12.991999626159668,0.11154697090387344,264.54095458984375,149.39999389648438,-86.9110211,40.4279851,-0.939861193,0.015031636547912093,-0.005022326,0.34118873575358716,8.170785488633131E-4,0.031687727,2.445126040467938,9.91931101,-0.314817234,-0.007454563,-128.6666667,-57.50469883,-20.94849751,-18.88254957,-1.71E-04,6.078823370117586E-5,-5.93E-06,9.240363408060907E-4,-4.33E-04,5.843916555269829E-4,9.91931101,-0.314817234,-0.007454563,-0.021397445,0.015026546209978247,1.4678124808570713E-4,-100.7645562,37.25233325958252,-51.52291687,Classroom
151,45,1.5,1,12.991999626159668,0.11154697090387344,264.54095458984375,149.39999389648438,-86.9110211,40.4279851,-0.939823998,0.014936192449435446,-0.00497826,0.3412960064642638,8.383507578118333E-4,0.031478102,2.444898734972315,9.944594226,-0.310956596,-0.008133855,-134.5,-57.4848127,-20.94605759,-18.94074366,-6.38E-05,2.520489596843141E-5,1.2454167415288468E-4,0.015361406270740102,0.001989421,5.247065779364225E-4,9.944594226,-0.310956596,-0.008133855,-0.021290695,0.014990962879026978,2.7725347080403593E-4,-100.7449139,37.25318725585937,-51.581721,Classroom
152,45,1.5,1,12.991999626159668,0.11154697090387344,264.54095458984375,149.39999389648438,-86.9110211,40.4279851,-0.939734553,0.014700148553017852,-0.004910444,0.3415534368996481,8.131292014545535E-4,0.030987789,2.4443542656389257,9.971490175,-0.307309284,-0.008133855,-127.3333333,-57.49432873,-20.96447958,-18.95757975,-6.38E-05,1.3343787535084682E-5,7.709722685654765E-5,0.012312935393990821,0.001404135,-1.42E-04,9.971490175,-0.307309284,-0.008133855,-0.021290695,0.014979101771723877,2.298090325496657E-4,-100.7544297,37.23537544250488,-51.59855682,Classroom
153,45,1.5,1,12.991999626159668,0.11154697090387344,264.54095458984375,149.39999389648438,-86.9110211,40.4279851,-0.939673573,0.014629363498279771,-0.004829411,0.34172535926392933,9.227409575686075E-4,0.030799183235006425,2.443987781561694,9.973145410852524,-0.306565883,-0.009156031,-130.25,-57.55118076,-20.9332477,-18.93366772,-1.63E-05,2.520489709867725E-5,1.779166773612638E-5,0.002286707,9.097916987335797E-4,5.358525380058196E-5,9.973145410852524,-0.306565883,-0.009156031,-0.021243251,0.014990962888068945,1.7050347173387564E-4,-100.8111601,37.26550945281983,-51.57391308,Classroom
154,45,1.5,1,12.991999626159668,0.11154697090387344,264.54095458984375,149.39999389648438,-86.9110211,40.4279851,-0.93965972,0.014638066229123909,-0.004789626,0.34176364827614564,0.001004754,0.030788305663288787,2.443905083032755,9.966646462968253,-0.30721636,-0.009039875,-126,-57.49859879,-20.99144157,-18.95855564,-2.00E-04,2.584354101250378E-4,-1.17E-04,-0.002855411,-2.24E-04,0.001214717,9.966646462968253,-0.30721636,-0.009039875,-0.021426642,0.015224193,3.524118129952023E-5,-100.7587002,37.20914527893066,-51.59782505,Classroom
155,45,1.5,1,12.991999626159668,0.11154697090387344,264.54095458984375,149.39999389648438,-86.9110211,40.4279851,-0.939685401,0.014784221284236143,-0.004765994,0.3416870418682839,0.001146631,0.031046962257004478,2.4440643023518684,9.960946138622692,-0.308935474,-0.010317596,-122.75,-57.59729687,-21.00120153,-18.9103657,-2.77E-04,2.268438065849534E-4,-1.60E-04,-0.002517756,6.187616042720461E-4,0.001185055,9.960946138622692,-0.308935474,-0.010317596,-0.021504195,0.015192601703179693,-7.41E-06,-100.8569099,37.19816505432129,-51.55122105,Classroom
156,45,1.5,1,12.894000053405762,0.1724340319633484,48.30391311645508,149.39999389648438,-86.911006,40.4279952,-0.939738028,0.014787403911858508,-0.004817012,0.34154144160955857,0.001048061,0.031087991,2.444375501,9.939480401937244,-0.309864726,-0.009295419,-109,-57.63255493,-20.97741154,-18.9320817,-8.75E-05,2.5204891447448036E-5,5.930555912042127E-6,-0.013509371,-2.24E-04,0.001215103,9.939480401937244,-0.309864726,-0.009295419,-0.021314417,0.014990962860943044,1.5864235595393095E-4,-100.8924117,37.22256534576416,-51.57379108,Classroom
157,45,1.5,1,12.894000053405762,0.1724340319633484,48.30391311645508,149.39999389648438,-86.911006,40.4279952,-0.939833463,0.014951421092580823,-0.004902336,0.34127037068015165,9.906764511805643E-4,0.03145492,2.444951004194982,9.907334096223405,-0.314301901,-0.009574195,-121.7777778,-57.53336895,-20.99424757,-18.9622156,-2.82E-05,9.637156804318278E-5,-1.78E-05,-0.015256474,-0.00196204,3.3453691895436315E-4,9.907334096223405,-0.314301901,-0.009574195,-0.021255112,0.015062129577097384,1.3492013795699166E-4,-100.793348,37.20572929382324,-51.60282692,Classroom
158,45,1.5,1,12.894000053405762,0.1724340319633484,48.30391311645508,149.39999389648438,-86.911006,40.4279952,-0.939890199,0.015080612867130238,-0.004941062,0.3411078424129671,0.001000617,0.031724425846511875,2.445295030630908,9.899900186,-0.314859452,-0.00894695,-113.125,-57.54190872,-20.97545954,-18.97429373,-1.23E-04,6.078823539654462E-5,2.9652779560210635E-5,-0.005694454,-3.82E-04,0.001043954,9.899900186,-0.314859452,-0.00894695,-0.021350001,0.015026546191894313,1.823645812974682E-4,-100.8016441,37.225249404907224,-51.61295292,Classroom
159,45,1.5,1,12.894000053405762,0.1724340319633484,48.30391311645508,149.39999389648438,-86.911006,40.4279952,-0.939908168,0.015116353564470717,-0.004948946,0.34105663855098983,0.001008463,0.031797066,2.4454034092356856,9.907045080111576,-0.314886258,-0.008904061,-125,-57.53995686,-20.96972553,-18.94147564,-1.94E-04,1.4381601420927396E-4,5.337500320837914E-5,0.00269225,2.7561100941259883E-4,0.001050627,9.907045080111576,-0.314886258,-0.008904061,-0.021421167,0.015109574,2.060868072061284E-4,-100.7994482,37.22964141845703,-51.58196495,Classroom
160,45,1.5,1,12.894000053405762,0.1724340319633484,48.30391311645508,149.39999389648438,-86.911006,40.4279952,-0.939911194,0.015057072893363757,-0.004966606,0.3410506633300226,9.34578882964346E-4,0.031697654933894724,2.445417934251063,9.911840948,-0.312745406,-0.009016644,-127.75,-57.56277081,-20.96728554,-18.93415573,-1.23E-04,1.4826700597712137E-6,-2.97E-05,0.002760961,0.001599823,6.717563769554051E-4,9.911840948,-0.312745406,-0.009016644,-0.021350001,0.014967240637294876,1.2305902161192402E-4,-100.8227502,37.233057289123536,-51.57318104,Classroom
161,45,1.5,1,12.894000053405762,0.1724340319633484,48.30391311645508,149.39999389648438,-86.911006,40.4279952,-0.939872302,0.014913074988690973,-0.004941081,0.3411645157244599,8.88082007221986E-4,0.031409375,2.4451781777502264,9.931323282926986,-0.311072752,-0.009016644,-133,-57.48005489,-20.95581764,-18.93220373,3.1135428710433757E-5,-2.48E-04,1.2454167415288468E-4,0.012297204397257093,4.8528047441278845E-4,-3.61E-04,9.931323282926986,-0.311072752,-0.009016644,-0.021195806,0.014718157284468123,2.7725347645526514E-4,-100.7404001,37.24318344116211,-51.57122902,Classroom
162,45,1.5,1,12.894000053405762,0.1724340319633484,48.30391311645508,149.39999389648438,-86.911006,40.4279952,-0.939825547,0.014746593230051322,-0.004909423,0.34130099271107645,8.384547313874208E-4,0.031074629,2.444890568557295,9.963635185389842,-0.307262822,-0.00931865,-132,-57.46736683,-20.9955895,-18.94525766,-8.75E-05,-1.17E-04,-4.15E-05,0.014775211371264411,0.002269514,-9.69E-04,9.963635185389842,-0.307262822,-0.00931865,-0.021314417,0.014848629537137966,1.1119791374370022E-4,-100.7273461,37.2045092,-51.58452705,Classroom
163,45,1.5,1,12.894000053405762,0.1724340319633484,48.30391311645508,149.39999389648438,-86.911006,40.4279952,-0.939786693,0.014640771694338093,-0.004865877,0.34141312826138276,8.517225623318853E-4,0.030845836395970903,2.4446531259096584,9.966242827258064,-0.306632674,-0.007065215,-132.7777778,-57.47920082,-20.9602095,-18.89840967,1.1747076104466732E-5,1.762059798168663E-4,1.1747062671929598E-5,0.003024578,8.464429814081925E-4,0.001548401,9.966242827258064,-0.306632674,-0.007065215,-0.021215195,0.015141963985605309,1.6445885557914153E-4,-100.7386921,37.240987358093264,-51.53877693,Classroom
164,45,1.5,1,12.894000053405762,0.1724340319633484,48.30391311645508,149.39999389648438,-86.911006,40.4279952,-0.93973934,0.014644027271678725,-0.004787287,0.3415444305220854,0.001006045,0.030798141,2.444371579920204,9.964149123256647,-0.306821428,-0.010503446,-131.125,-57.50201496,-20.97179956,-19.01199167,-2.82E-05,1.7939935081177254E-4,6.52361150324634E-5,-3.04E-04,2.829993812783251E-4,-4.01E-04,9.964149123256647,-0.306821428,-0.010503446,-0.021255112,0.015145157,2.1794790546726255E-4,-100.7622378,37.22793327331543,-51.65272476,Classroom
165,45,1.5,1,12.894000053405762,0.1724340319633484,48.30391311645508,149.39999389648438,-86.911006,40.4279952,-0.939732736,0.014737750448792884,-0.004751284,0.34155903105596896,0.001138274,0.030949713,2.4443374814339056,9.951276131046628,-0.308363404,-0.008389399,-130.8888889,-57.49737881,-20.94996159,-19.00113367,-1.94E-04,3.9289936816627253E-4,-1.01E-04,-0.006187328,2.3180419958910896E-5,0.003024224,9.951276131046628,-0.308363404,-0.008389399,-0.021421168,0.015358657,5.189235405815603E-5,-100.757114,37.25074756622315,-51.6413792,Classroom
166,45,1.5,1,12.894000053405762,0.1724340319633484,48.30391311645508,149.39999389648438,-86.911006,40.4279952,-0.939719079,0.014717777,-0.004733403,0.3415977541104104,0.001159532,0.030899901,2.4442550742510454,9.939910175730882,-0.308215304,-0.011409466,-127.5555556,-57.51763088,-20.97375162,-18.95745777,4.299654449037846E-5,2.1498269137013162E-4,1.6012500962513744E-4,-0.008662196,-5.83E-04,2.0368864705551018E-4,9.939910175730882,-0.308215304,-0.011409466,-0.021183945,0.015180740668212326,3.1283681249264086E-4,-100.7770001,37.226225242614746,-51.59782497,Classroom
167,45,1.5,1,12.894000053405762,0.1724340319633484,48.30391311645508,149.39999389648438,-86.911006,40.4279952,-0.939800473,0.014714418042414976,-0.004854679,0.3413721106006104,9.217346584406293E-4,0.030976657891302432,2.444738515372415,9.906846606,-0.309349978,-0.007546595,-120.5,-57.55618286,-20.98387749,-18.90536364,4.106910070811299E-4,-3.54E-04,4.5665280748773547E-4,-0.015206106,-0.001867852,0.001301783,9.906846606,-0.309349978,-0.007546595,-0.020816251,0.014611407309698248,6.093646216576974E-4,-100.815918,37.21548957824707,-51.54524307,Classroom
168,45,1.5,1,12.894000053405762,0.1724340319633484,48.30391311645508,149.39999389648438,-86.911006,40.4279952,-0.939876965,0.014804972905340125,-0.004943026,0.3411563388930941,8.103323583852825E-4,0.031207449,2.4451980428788267,9.904406955,-0.310648781,-0.007553072,-120.2222222,-57.50933468,-20.93434563,-18.96990154,-1.71E-04,1.2009379508208881E-4,5.337500320837914E-5,-0.003088433,-0.001382907,0.001229213,9.904406955,-0.310648781,-0.007553072,-0.021397445,0.015085851755535718,2.060867936431783E-4,-100.76968,37.26550941467285,-51.61026897,Classroom
169,45,1.5,1,12.894000053405762,0.1724340319633484,48.30391311645508,149.39999389648438,-86.911006,40.4279952,-0.939926848,0.014815435337933522,-0.005016715,0.34101737037445734,6.742749246768653E-4,0.031277519,2.445495487416832,9.907729019239111,-0.31090723,-0.007483379,-126.875,-57.52763485,-20.97948566,-18.96575373,4.2996539404272164E-5,-3.54E-04,4.151389138429489E-5,0.001224916,-5.12E-04,-0.001258504,9.907729019239111,-0.31090723,-0.007483379,-0.021183945,0.014611407300656281,1.9422569199130661E-4,-100.7877361,37.22158931732178,-51.60685295,Classroom
170,45,1.5,1,1600,0,0,149.39999389648438,-86.9080931,40.4347685,-0.939913234,0.014743695135038454,-0.005014114,0.34105803839211324,6.315502000733016E-4,0.031140827,2.4454104414263975,9.912096477249294,-0.30777391,-0.008389399,-113.6666667,-57.52324276,-20.95325556,-18.96575363,1.616076548195001E-4,-3.66E-04,1.6012500962513744E-4,0.002067677,9.423213676341529E-4,-0.001842155,9.912096477249294,-0.30777391,-0.008389399,-0.021065334,0.014599546148143346,3.128368091019033E-4,-100.7826118,37.243793411254885,-51.60526707,Classroom
171,45,1.5,1,1600,0,0,149.39999389648438,-86.9080931,40.4347685,-0.939873747,0.014661671286358417,-0.004970167,0.3411710218897144,6.619290244150726E-4,0.030956534,2.4451706502044086,9.925506739940458,-0.306589114,-0.007274297,-109.5,-57.53214867,-20.98033957,-18.90975574,1.9274311800243206E-5,-2.12E-04,1.482638978010532E-4,0.008402806,5.570626953273144E-4,-6.30E-04,9.925506739940458,-0.306589114,-0.007274297,-0.021207667,0.014753740597335458,3.009757006685566E-4,-100.791884,37.22061328887939,-51.549879,Classroom
172,45,1.5,1,1600,0,0,149.39999389648438,-86.9080931,40.4347685,-0.939826493,0.014514223717224713,-0.004940569,0.34130787878082347,6.213576853042468E-4,0.030659012,2.444881803714312,9.957682146609407,-0.302538158,-0.00804093,-126.1111111,-57.56228283,-20.93385757,-18.95343164,-1.41E-04,-1.76E-04,-1.17E-05,0.015743475693922777,0.002494161,-0.001749646,9.957682146609407,-0.302538158,-0.00804093,-0.021367906,0.014789552,1.4096474086937422E-4,-100.8221397,37.265875282287595,-51.592579,Classroom
173,45,1.5,1,1600,0,0,149.39999389648438,-86.9080931,40.4347685,-0.939729895,0.014480134,-0.004803993,0.3415771659138133,8.636540224667168E-4,0.03050142,2.4443058990737767,9.970052746893133,-0.306121584,-0.00859848,-131.75,-57.52153481,-20.91677757,-18.97770954,-2.82E-05,1.082326787370212E-4,4.151389138429489E-5,0.007281655,-0.002031099,8.515841824915803E-5,9.970052746893133,-0.306121584,-0.00859848,-0.021255112,0.015073990630148684,1.9422569255642954E-4,-100.7812704,37.28307720184326,-51.61783291,Classroom
174,45,1.5,1,1600,0,0,149.39999389648438,-86.9080931,40.4347685,-0.939755191,0.014490737,-0.004842216,0.34150655611047465,7.967340459852723E-4,0.030547529983433706,2.4444569245125485,9.964105606079102,-0.304289218,-0.007622766,-131.6666667,-57.50128292,-20.94605768,-18.9048757,-1.35E-04,-2.48E-04,-5.93E-06,-0.001407151,3.5002162155595796E-4,3.968257484143799E-4,9.964105606079102,-0.304289218,-0.007622766,-0.021361862,0.014718157257342223,1.4678123226226535E-4,-100.7608957,37.25404113769531,-51.54377914,Classroom
175,45,1.5,1,1600,0,0,149.39999389648438,-86.9080931,40.4347685,-0.939761714,0.014474381,-0.004858078,0.3414890829799245,7.551597873228195E-4,0.030527633352621087,2.444494877046752,9.959430333480094,-0.304658012,-0.007808617,-138.7777778,-57.48603268,-20.9333696,-18.96648565,-2.82E-05,-9.34E-05,1.0081945050471616E-4,-0.002649391,-3.26E-04,-2.06E-04,9.959430333480094,-0.304658012,-0.007808617,-0.021255112,0.014872351733660236,2.5353124941635913E-4,-100.7457682,37.26721740722656,-51.60685307,Classroom
176,45,1.5,1,1600,0,0,149.39999389648438,-86.9080931,40.4347685,-0.939774025,0.014516117602803753,-0.004863416,0.3414533540461827,7.72485132012697E-4,0.030609771102956197,2.444570171022878,9.945226687651415,-0.306373331,-0.009065117,-134,-57.50835865,-20.92397558,-19.00967365,-9.93E-05,-2.24E-04,5.337500320837914E-5,-0.008293781,-0.001210317,-0.001550853,9.945226687651415,-0.306373331,-0.009065117,-0.021326278,0.014741879526200225,2.0608680607588257E-4,-100.7682158,37.27612319946289,-51.65052906,Classroom
177,45,1.5,1,1600,0,0,149.39999389648438,-86.9080931,40.4347685,-0.939800274,0.014559745056174913,-0.004890178,0.3413788739917348,7.495466171587519E-4,0.030710132,2.4447284277203014,9.946783787995866,-0.305172007,-0.006949059,-138.3333333,-57.48822872,-20.93519957,-18.9869817,1.2602432556359946E-4,-1.17E-04,3.024583515141485E-4,0.001377596,6.845419846692132E-5,5.160910800750395E-4,9.946783787995866,-0.305172007,-0.006949059,-0.021100917,0.014848629537137966,4.551701504257915E-4,-100.7474763,37.26489941,-51.6272271,Classroom
178,45,1.5,1,1600,0,0,149.39999389648438,-86.9080931,40.4347685,-0.939815765,0.014495175802013248,-0.004936589,0.34133827830981284,6.168268717603885E-4,0.030620453,2.444817399515689,9.951865622,-0.306661711,-0.008459093,-68.25,-57.48322681,-20.98753759,-18.97502558,-1.47E-04,1.334379431655974E-5,3.736250247191457E-4,0.001426086,-0.00190415,-0.001266032,9.951865622,-0.306661711,-0.008459093,-0.021373723,0.014979101780765844,5.263368179795595E-4,-100.7430841,37.21280521392822,-51.61392883,Classroom
179,45,1.5,1,1600,0,0,149.39999389648438,-86.9080931,40.4347685,-0.939830671,0.014519956,-0.004951912,0.34129577933005917,6.034762213019048E-4,0.030677495542371157,2.444907658308455,9.943609793209335,-0.307227974,-0.004068379,-95.88888889,-57.50347885,-20.94508152,-18.99808359,9.044099235183839E-5,-3.31E-04,1.1268056006830873E-4,-0.004617802,-0.001242107,9.93876555229275E-4,9.943609793209335,-0.307227974,-0.004068379,-0.021136501,0.014635129533346418,2.6539238497560606E-4,-100.7627264,37.25550521850586,-51.63881699,Classroom
180,45,1.5,1,1600,0,0,149.39999389648438,-86.9080931,40.4347685,-0.939883277,0.014615538198715793,-0.005002784,0.3411461951640936,5.682497730259246E-4,0.030892041601383917,2.445225301,9.939529807822218,-0.307521269,-0.008459093,-90.125,-57.49176682,-20.92360962,-18.99564367,-5.87E-05,-9.40E-05,1.5271182369010954E-4,-0.001116367,-5.68E-04,-0.002370215,9.939529807822218,-0.307521269,-0.008459093,-0.021285677,0.014871781423258094,3.054236311492367E-4,-100.7522337,37.27563545227051,-51.63564518,Classroom
181,45,1.5,1,13.102999687194824,0,0,149.39999389648438,-86.9110135,40.427984,-0.939841358,0.014597689543027901,-0.004942466,0.34126322911781015,6.733092671408299E-4,0.030817216732403608,2.4449750289176273,9.928767824635923,-0.308845453,-0.007134909,-99.11111111,-57.55313286,-20.97045765,-18.94684355,1.853298569929976E-4,-4.26E-04,2.4315278561225215E-4,-0.007836453,-0.002449561,-3.64E-04,9.928767824635923,-0.308845453,-0.007134909,-0.021041612,0.014540240625190793,3.958646150405329E-4,-100.8128678,37.23037315368652,-51.58708885,Classroom
182,45,1.5,1,13.102999687194824,0,0,149.39999389648438,-86.9110135,40.427984,-0.939922554,0.014785285315756659,-0.005007619,0.34103063240791986,6.712381241987776E-4,0.031214612707929704,2.44546768,9.901386927632453,-0.312791866,-0.009597426,-124.75,-57.49859882,-20.93715149,-18.97734375,1.9719100046396544E-4,-2.00E-04,3.143194633382327E-4,-0.012759542,-0.003101735,-0.002864253,9.901386927632453,-0.312791866,-0.009597426,-0.021029751,0.014765602,4.670312616847528E-4,-100.7587,37.26270351409912,-51.61819923,Classroom
183,45,1.5,1,13.102999687194824,0,0,149.39999389648438,-86.9110135,40.427984,-0.939960387,0.014961022431555303,-0.005008275,0.3409186737629974,7.86209617994581E-4,0.031545592779384075,2.445702089846713,9.898297050624217,-0.313392978,-0.007855079,-111.7777778,-57.49274288,-20.94117758,-18.93818167,7.413209018125696E-6,-9.34E-05,2.5501390421781147E-4,-0.002954881,-8.28E-04,9.124868015930491E-6,9.898297050624217,-0.313392978,-0.007855079,-0.021219529,0.014872351733660236,4.077256946526106E-4,-100.7528434,37.258799362182614,-51.57793888,Classroom
184,45,1.5,1,13.102999687194824,0,0,149.39999389648438,-86.9110135,40.427984,-0.93999028,0.014959326194762026,-0.005056295,0.3408355721570913,6.919370834756354E-4,0.031575199,2.445880188525302,9.901235867472527,-0.314220591,-0.006925828,-116.1111111,-57.56630859,-20.95337753,-18.93061766,-1.35E-04,-4.60E-05,1.9570835639984863E-4,0.001033876,-0.001404313,4.838449084787693E-6,9.901235867472527,-0.314220591,-0.006925828,-0.021361862,0.014919796189998539,3.4842016774419587E-4,-100.826166,37.246477394104005,-51.57110695,Classroom
185,45,1.5,1,13.102999687194824,0,0,149.39999389648438,-86.9110135,40.427984,-0.939981007,0.014960885,-0.005041034,0.34086134451106914,7.225785509556604E-4,0.031567721,2.4458249494867417,9.908126400067257,-0.314334068,-0.00770765,-130.875,-57.53556503,-20.97192158,-18.96941359,1.023021002200622E-4,-1.88E-04,3.143194655987244E-4,0.003730376,-0.001624589,-3.63E-04,9.908126400067257,-0.314334068,-0.00770765,-0.02112464,0.014777462875235427,4.6703125772889234E-4,-100.7955438,37.22817737579346,-51.61026901,Classroom
186,45,1.5,1,13.102999687194824,0,0,149.39999389648438,-86.9110135,40.427984,-0.939961907,0.014924450578547797,-0.005023024,0.34091587639549403,7.334221538734957E-4,0.031486887,2.4457092262008815,9.922983262145404,-0.311348625,-0.009365113,-126.1111111,-57.56630882,-20.93641951,-18.92097961,-3.01E-04,-1.17E-04,5.337500320837914E-5,0.009605676,0.001120368,-0.001759986,9.922983262145404,-0.311348625,-0.009365113,-0.021527917,0.014848629519054033,2.0608680551075965E-4,-100.8260441,37.26209327697754,-51.56073704,Classroom
187,45,1.5,1,13.102999687194824,0,0,149.39999389648438,-86.9110135,40.427984,-0.939888977,0.014759085674598379,-0.004963237,0.3411249605197351,7.399514597813482E-4,0.031134999673632743,2.445266362532829,9.955623266,-0.308842549,-0.007041984,-119.5,-57.49274288,-20.94691154,-18.9562377,9.044098896110087E-5,-3.07E-04,1.719861214492217E-4,0.015529086,7.70066837662632E-4,-2.46E-06,9.955623266,-0.308842549,-0.007041984,-0.021136501,0.014658851766036552,3.2469791301426666E-4,-100.7523558,37.254163398742676,-51.59636101,Classroom
188,45,1.5,1,13.102999687194824,0,0,149.39999389648438,-86.9110135,40.427984,-0.939764,0.014586323619033526,-0.004823152,0.34147832520957133,8.969466632584706E-4,0.030714133,2.444514431999725,9.959563931215156,-0.306705271,-0.012489721,-129.3333333,-57.50628494,-20.9194615,-18.92500572,2.0905210607169756E-4,6.657049310782436E-4,3.736250088957039E-4,0.003665109,-9.10E-04,-0.001146586,9.959563931215156,-0.306705271,-0.012489721,-0.02101789,0.015631462876838677,5.263368219354199E-4,-100.7661421,37.279905281066895,-51.565373,Classroom
189,45,1.5,1,13.102999687194824,0,0,149.39999389648438,-86.9110135,40.427984,-0.93987048,0.015622865829545144,-0.005057215,0.3411340329509515,0.001152094,0.032822906935157686,2.4452296105714946,9.950698204410886,-0.326071454,-0.009640984,-96.875,-57.50738285,-20.87859156,-19.00515966,-3.05E-04,-8.22E-04,-0.003383154,-0.004070915,0.001342815,-3.94E-04,9.950698204410886,-0.326071454,-0.009640984,-0.021532366,0.014143463559986021,-0.003230442,-100.7671175,37.32065349578858,-51.64625896,Classroom
190,45,1.5,1,13.102999687194824,0,0,149.39999389648438,-86.9110135,40.427984,-0.940098011,0.016339768682724062,-0.005492235,0.34046810749665046,8.003020442081887E-4,0.034468637,2.4466418224631004,9.949710864465214,-0.346244921,-0.007878311,-118.7777778,-57.5578907,-20.77598965,-18.94611166,7.857988617898335E-5,-1.76E-04,-1.78E-05,-5.06E-04,-0.003036841,1.6444936412775401E-4,9.949710864465214,-0.346244921,-0.007878311,-0.021148362,0.014789323964454596,1.349201159171977E-4,-100.817382,37.42325546264649,-51.58684475,Classroom
191,0,1.5,1,13.015000343322754,0.087979279,0,149.39999389648438,-86.91101,40.4279937,-0.940193769,0.01645276,-0.005612756,0.34019604412097376,6.404523624704011E-4,0.03476341,2.4472214087699222,9.939994441652761,-0.348196349,-0.00732076,-115,-57.56057484,-20.78147964,-18.95635967,-1.47E-04,-5.09E-04,-7.29E-04,-0.006563335,-0.002178832,-8.70E-04,9.939994441652761,-0.348196349,-0.00732076,-0.021373723,0.014457213,-5.77E-04,-100.82092,37.418985519409176,-51.5958728,Classroom
192,0,1.5,1,13.015000343322754,0.087979279,0,149.39999389648438,-86.91101,40.4279937,-0.940459825,0.016910605005992268,-0.00589972,0.33943263419623515,3.8334845680544535E-4,0.035820259,2.448842673625761,9.904058539751665,-0.357558557,-0.006089501,-113.4444444,-57.58046101,-20.7796496,-19.00186562,3.113542531969622E-5,-3.78E-04,7.769028267380103E-4,-0.017092233,-0.001926803,-0.002205707,9.904058539751665,-0.357558557,-0.006089501,-0.021195806,0.014587685031798279,9.29614620563547E-4,-100.8404402,37.420693435668944,-51.64150097,Classroom
193,0,1.5,1,13.015000343322754,0.087979279,0,149.39999389648438,-86.91101,40.4279937,-0.940314416,0.016675946,-0.005779099,0.33984893907621067,4.665498758521546E-4,0.035296629,2.447959291124807,9.898880106,-0.352067038,-0.007569602,-107,-57.62145279,-20.77354977,-19.0881196,7.857986866017279E-5,-4.61E-04,5.159583711291401E-4,-0.00420275,-0.002169657,-0.002829827,9.898880106,-0.352067038,-0.007569602,-0.021148362,0.014504657,6.686701683454143E-4,-100.8817983,37.42642726898193,-51.72653503,Classroom
194,0,1.5,1,13.015000343322754,0.087979279,0,149.39999389648438,-86.91101,40.4279937,-0.940304408,0.016717259401401268,-0.005766366,0.3398748312181639,5.19595509881009E-4,0.035365680467735215,2.4479028414754036,9.901665780150775,-0.350217471,-0.006275352,-122.1111111,-57.56752876,-20.80270756,-18.91597778,1.9719098577076948E-4,-2.95E-04,5.337500320837914E-5,5.502885985142976E-4,1.239973364524471E-4,-0.001073517,9.901665780150775,-0.350217471,-0.006275352,-0.021029751,0.014670712801003918,2.0608681059686593E-4,-100.8282399,37.39775741577149,-51.55646709,Classroom
195,0,1.5,1,13.015000343322754,0.087979279,0,149.39999389648438,-86.91101,40.4279937,-0.940278061,0.016700071,-0.005725944,0.33994923893687795,5.867552623668125E-4,0.035305811001837835,2.4477437445260946,9.905986739593802,-0.349543763,-0.005764263,-122,-57.61950073,-20.77049957,-18.98661564,-5.19E-05,-6.97E-05,5.337500320837914E-5,0.001790232,4.952575975251429E-4,8.13661676659746E-5,9.905986739593802,-0.349543763,-0.005764263,-0.021278834,0.014896073930182503,2.0608681398760347E-4,-100.8786263,37.429111366271975,-51.62710491,Classroom
196,0,1.5,1,13.015000343322754,0.087979279,0,149.39999389648438,-86.91101,40.4279937,-0.940242748,0.016621209464026888,-0.005711064,0.340051014,5.648876743807086E-4,0.035147283768769605,2.447528730318384,9.915906396884363,-0.347336791,-0.006182427,-113.7777778,-57.60193283,-20.77208565,-18.96746161,-4.45E-06,-9.34E-05,1.2454167415288468E-4,0.00729697,9.146321167066259E-4,-5.51E-04,9.915906396884363,-0.347336791,-0.006182427,-0.02123139,0.014872351679408435,2.7725348210649436E-4,-100.8620345,37.42776916503906,-51.60709698,Classroom
197,0,1.5,1,13.015000343322754,0.087979279,0,149.39999389648438,-86.91101,40.4279937,-0.940159784,0.016456707263166465,-0.005643399,0.3402894333149623,5.890396259752219E-4,0.034791665,2.447023470424911,9.951926731,-0.344223799,-0.006205658,-134.2222222,-57.49884277,-20.8002676,-18.9900317,-9.93E-05,-1.05E-04,5.337500320837914E-5,0.017705972912242112,0.001565933,-1.81E-04,9.951926731,-0.344223799,-0.006205658,-0.021326278,0.014860490599231235,2.0608681342248054E-4,-100.7590659,37.399709396362304,-51.63052082,Classroom
198,0,1.5,1,13.015000343322754,0.087979279,0,149.39999389648438,-86.91101,40.4279937,-0.940078213,0.016354051,-0.005569285,0.3405208974503554,6.670606738995188E-4,0.03454796,2.4465313095312853,9.961065292358398,-0.344781348,-0.006925828,-120.25,-57.5606966,-20.76134953,-19.06176767,-2.35E-05,-2.35E-05,1.6445887740701437E-4,0.00614423,-5.25E-04,-2.28E-04,9.961065292358398,-0.344781348,-0.006925828,-0.021250436,0.014942263826154746,3.171706865452087E-4,-100.82031,37.438749351501464,-51.70201317,Classroom
199,0,1.5,1,13.015000343322754,0.087979279,0,149.39999389648438,-86.91101,40.4279937,-0.940080624,0.016338242,-0.005595895,0.340514555,6.05992955331989E-4,0.034536357028681096,2.4465459342141753,9.962726324507333,-0.34427026,-0.007413685,-122,-57.56386879,-20.78355364,-18.95477373,7.857986752992695E-5,-9.34E-05,2.194305687455587E-4,0.00128447,-2.62E-06,-0.001297372,9.962726324507333,-0.34427026,-0.007413685,-0.021148362,0.014872351688450402,3.7214237782941424E-4,-100.8238483,37.41532531738281,-51.59550713,Classroom
200,0,1.5,1,13.015000343322754,0.087979279,0,149.39999389648438,-86.91101,40.4279937,-0.940088704,0.01643245,-0.005583843,0.3404877466484181,6.917813477486155E-4,0.034705346,2.446600330686106,9.955843990288892,-0.347429716,-0.007018753,-136.75,-57.53617474,-20.74683161,-18.94940575,-4.45E-06,-1.59E-04,-7.89E-04,-0.003157773,-0.001561163,-4.93E-05,9.955843990288892,-0.347429716,-0.007018753,-0.02123139,0.014718157,-6.36E-04,-100.79591,37.45399932861328,-51.59062698,Classroom
201,0,1.5,1,13.015000343322754,0.087979279,0,149.39999389648438,-86.91101,40.4279937,-0.940222214,0.016694490662188206,-0.005720753,0.3401040255444721,5.985363821716057E-4,0.035291688,2.4474144028228464,9.947460461588738,-0.349869,-0.005950114,-136.8888889,-57.5682608,-20.76561954,-19.00015766,-1.59E-04,5.930555912042127E-5,1.6012500962513744E-4,-0.004357579,0.001594032,8.703607306318376E-5,9.947460461588738,-0.349869,-0.005950114,-0.021385584,0.014872351697492368,3.128368192741159E-4,-100.8281184,37.43545539855957,-51.63979305,Classroom
202,0,1.5,1,13.015000343322754,0.087979279,0,149.39999389648438,-86.91101,40.4279937,-0.940175049,0.016661527828828803,-0.005671079,0.340236832,6.745299979935861E-4,0.03519579,2.4471311708098478,9.949258942,-0.351422819,-0.007132452,-107.125,-57.56521084,-20.73182562,-18.96136164,-2.82E-05,-1.19E-04,3.499027988104855E-4,-3.21E-05,-9.85E-04,-5.30E-04,9.949258942,-0.351422819,-0.007132452,-0.021255112,0.014694435115071755,5.026146045036035E-4,-100.8245801,37.46888339996338,-51.60160679,Classroom
203,0,1.5,1,13.015000343322754,0.087979279,0,149.39999389648438,-86.91101,40.4279937,-0.940143365,0.016647586797915614,-0.005634128,0.34032567149227105,7.37881064143719E-4,0.035144347,2.4469414127683176,9.948026795989101,-0.350682095,-0.007994467,-113.3333333,-57.60937492,-20.76159369,-18.96416765,-8.75E-05,1.779166773612638E-4,6.52361150324634E-5,-9.58E-05,-5.86E-04,-4.12E-04,9.948026795989101,-0.350682095,-0.007994467,-0.021314417,0.014990963,2.179479252465648E-4,-100.869598,37.43826152801514,-51.60502293,Classroom
204,0,1.5,1,13.015000343322754,0.087979279,0,149.39999389648438,-86.91101,40.4279937,-0.940137202,0.016901854,-0.005562847,0.3403312115414629,0.001045451,0.035574002,2.446921138,9.950535672382244,-0.355119271,-0.01075899,-129.25,-57.59888298,-20.7874576,-19.01711567,-0.002851115,9.014444986304033E-4,-8.90E-05,0.00128472,-0.001437105,-2.32E-04,9.950535672382244,-0.355119271,-0.01075899,-0.024078057,0.015714491,6.375346588224028E-5,-100.8584959,37.41251926422119,-51.65784897,Classroom
205,0,1.5,1,13.015000343322754,0.087979279,0,149.39999389648438,-86.91101,40.4279937,-0.939832447,0.017108482,-0.004987767,0.34116872508548995,0.00229987,0.035567873347442124,2.445116098644664,9.946847665657117,-0.357256551,-0.022877011,-119.8888889,-57.59937088,-20.80978355,-18.78202177,0.004218108,0.003344834,2.0756945466098275E-4,-0.001850943,-0.002649481,0.00106517,9.946847665657117,-0.357256551,-0.022877011,-0.017008834,0.018157879659200755,3.602812744821738E-4,-100.8599603,37.39043743133545,-51.4219009,Classroom
206,0,1.5,1,12.940999984741211,0.035931524,0,149.39999389648438,-86.9110072,40.4279892,-0.936647827,0.017778574,-0.003606095,0.3497927406659493,0.005685612,0.035834995,2.426665656841718,9.934747011,-0.338238839,-0.080127615,-131.7777778,-57.74040287,-20.12804749,-18.90914558,0.03075381,-6.58E-04,-0.001550612,-0.008037549,0.017934709,-0.023861962,9.934747011,-0.338238839,-0.080127615,0.009526868,0.014155210537585216,-0.0013979,-101.000748,38.07229549407959,-51.54963474,Classroom
207,0,1.5,1,12.940999984741211,0.035931524,0,149.39999389648438,-86.9110072,40.4279892,-0.932460686,0.018244369968193248,-0.004626055,0.36077424797039587,0.004539037,0.037368405,2.403175418816724,9.896200476340876,-0.385468044,-0.022908954,-119.875,-57.68806496,-19.12813568,-19.13374765,0.022946803,-0.001447056,-0.00170207,-0.017862783,-0.014758469,0.022132453861311803,9.896200476340876,-0.385468044,-0.022908954,0.001719861,0.013365990477749735,-0.001549358,-100.9485323,39.07098747253418,-51.77301704,Classroom
208,0,1.5,1,12.940999984741211,0.035931524,0,149.39999389648438,-86.9110072,40.4279892,-0.93532044,0.01916684,-0.005006739,0.35316394110327787,0.004173789,0.039406543,2.419438461655552,9.892210525216408,-0.39944457,-0.040564732,-123.4444444,-57.65549076,-19.22158762,-19.01870159,-0.028447394,0.002443389,2.3129168283013464E-4,-0.003689072,-0.009197368,8.02292099710807E-4,9.892210525216408,-0.39944457,-0.040564732,-0.049674336,0.017256435232906087,3.8400347722079424E-4,-100.9154699,38.978999099731446,-51.65919086,Classroom
209,0,1.5,1,12.940999984741211,0.035931524,0,149.39999389648438,-86.9110072,40.4279892,-0.938296609,0.018045644,-0.005271745,0.345318034,0.002571618,0.037514388,2.4362573669952097,9.899054962,-0.368840252,-0.024430603,-112.875,-57.63365299,-19.86867558,-19.02980366,0.003791108,-0.004886778,0.002591653,0.002021003,0.002702441,0.001079947,9.899054962,-0.368840252,-0.024430603,-0.017435834,0.009926268,0.002744365,-100.8937539,38.32983715057373,-51.668829,Classroom
210,0,1.5,1,12.940999984741211,0.035931524,0,149.39999389648438,-86.9110072,40.4279892,-0.938257588,0.017442051791450353,-0.005835069,0.3454479899221254,0.001101706,0.036769965,2.4360155619463875,9.903570817067074,-0.363271889,-0.010514615,-121.6666667,-57.55093681,-19.81353159,-19.09312157,-1.59E-04,9.488889459267403E-5,8.124861689917382E-4,0.00250621,8.62561961979542E-4,5.991924011591569E-4,9.903570817067074,-0.363271889,-0.010514615,-0.021385584,0.014907935082695438,9.651979464287101E-4,-100.8107941,38.38620132446289,-51.73202469,Classroom
211,0,1.5,1,12.472000122070312,0.018795218,0,149.39999389648438,-86.9110073,40.4279901,-0.937981452,0.016832245,-0.005696809,0.3462296495738539,9.692199550822233E-4,0.035528944,2.434360471743982,9.912401356743377,-0.351541654,-0.009411576,-127.875,-57.56582104,-19.93516556,-18.99051964,3.113542701506499E-5,4.7444447296337016E-5,5.752639234680863E-4,0.004405068,9.134851613091033E-4,3.4004859445453846E-4,9.912401356743377,-0.351541654,-0.009411576,-0.021195806,0.014860491,7.279757201192376E-4,-100.8260442,38.264445571899415,-51.63003296,Classroom
212,0,1.5,1,12.472000122070312,0.018795218,0,149.39999389648438,-86.9110073,40.4279901,-0.937891311,0.016784815859158062,-0.005646949,0.34647693709262367,0.001039305,0.035405134,2.433832802818817,9.912979246343223,-0.352865838,-0.010526677,-128.4444444,-57.61291279,-19.86135563,-19.05115368,-1.63E-05,-4.74E-05,2.905972396900642E-4,3.3935065408354826E-4,-0.001762712,-3.32E-04,9.912979246343223,-0.352865838,-0.010526677,-0.021243251,0.014765601749848393,4.433090425575676E-4,-100.8730145,38.3392313,-51.69164303,Classroom
213,0,1.5,1,12.472000122070312,0.018795218,0,149.39999389648438,-86.9110073,40.4279901,-0.93786168,0.016799034424198483,-0.005676436,0.34655596243525016,9.968107689434247E-4,0.035452168,2.433664711,9.911306621958909,-0.354166788,-0.009272188,-122.3333333,-57.54007896,-19.92198965,-19.01565161,-1.11E-04,2.3722223648168508E-5,3.024583515141485E-4,-4.28E-04,-0.00246268,9.423433124874402E-4,9.911306621958909,-0.354166788,-0.009272188,-0.021338139,0.014836768411750932,4.551701543816519E-4,-100.8001799,38.27835334777832,-51.65565308,Classroom
214,0,1.5,1,12.472000122070312,0.018795218,0,149.39999389648438,-86.9110073,40.4279901,-0.937837388,0.016820794785196342,-0.005711348,0.34662006549464847,9.488120270458963E-4,0.035517139559231914,2.4335284163650956,9.912166197323105,-0.351866891,-0.009876201,-115.5,-57.56569904,-19.89222157,-19.08897371,-5.19E-05,1.6605556553717955E-4,2.5501390421781147E-4,-4.58E-05,9.007245591543254E-5,-3.23E-04,9.912166197323105,-0.351866891,-0.009876201,-0.021278834,0.014979101780765844,4.077257070853149E-4,-100.8255558,38.307877197265626,-51.72946304,Classroom
215,0,1.5,1,12.472000122070312,0.018795218,0,149.39999389648438,-86.9110073,40.4279901,-0.937777877,0.016739823962919988,-0.005730618,0.34678461545935046,8.6266222318115E-4,0.035378422,2.4331799928958597,9.913708196102995,-0.352485427,-0.008110623,-109.4444444,-57.57338493,-19.88795153,-19.04968966,-2.70E-04,-1.17E-05,2.4668832058803394E-4,0.001073681,-0.001263518,1.636706919480975E-4,9.913708196102995,-0.352485427,-0.008110623,-0.021497124,0.014801299,3.994001129355568E-4,-100.8332417,38.31251365661621,-51.68847118,Classroom
216,0,1.5,1,12.472000122070312,0.018795218,0,149.39999389648438,-86.9110073,40.4279901,-0.937788759,0.016538962197390573,-0.005997964,0.34675938730100986,2.2037795147783964E-4,0.035186755,2.433246274596279,9.930335942981312,-0.350420745,-0.002273762,-108.125,-57.59741871,-19.89600365,-19.09922161,-6.09E-04,-0.002526417,0.001156458,0.011859838,-0.001204814,-3.78E-05,9.930335942981312,-0.350420745,-0.002273762,-0.021836307,0.012286629328883967,0.00130917,-100.8571539,38.304949073791505,-51.73861305,Classroom
217,0,1.5,1,12.472000122070312,0.018795218,0,149.39999389648438,-86.9110073,40.4279901,-0.937875911,0.014884728151690034,-0.007205266,0.346576308,-0.003199638,0.032920307723931896,2.4337066377250895,9.962218034614637,-0.324799538,0.033020372,-93.33333333,-57.38172302,-19.93772776,-19.18596355,-4.43E-04,-0.001613111,0.00127507,0.013180899388581803,0.00295163,0.001273849,9.962218034614637,-0.324799538,0.033020372,-0.021670251,0.013199934971550462,0.001427781,-100.6415798,38.26359149932861,-51.82681896,Classroom
218,0,1.5,1,12.472000122070312,0.018795218,0,149.39999389648438,-86.9110073,40.4279901,-0.937549926,0.015664832,-0.006501914,0.3474348094856855,-0.001306884,0.033896319,2.4318387230623117,9.965307763479288,-0.337994909,0.014682173796757621,-87.375,-57.45492321,-19.98091557,-19.15131557,-4.20E-04,0.004092084,-0.002057903,0.003230113,-8.33E-05,0.001755347,9.965307763479288,-0.337994909,0.014682173796757621,-0.021646529,0.018905129690555113,-0.001905191,-100.715268,38.21991535186768,-51.79217098,Classroom
219,0,1.5,1,12.472000122070312,0.018795218,0,149.39999389648438,-86.9110073,40.4279901,-0.937182593,0.015932044385055317,-0.00670906,0.3484091642990853,-0.001474491,0.034543815,2.4297598773993334,9.958740885,-0.344747648,0.011722530201950576,-103.5555556,-57.51628883,-19.8825836,-19.12825766,6.24191009177311E-4,-0.003072028,5.278194693902743E-4,-0.002615753,-3.48E-04,-0.003122089,9.958740885,-0.344747648,0.011722530201950576,-0.020602751,0.011741018208711254,6.805312705624089E-4,-100.775292,38.31605102539063,-51.76813702,Classroom
220,0,1.5,1,12.472000122070312,0.018795218,0,149.39999389648438,-86.9110073,40.4279901,-0.937279115,0.015631182,-0.00729576,0.3481526719134988,-0.002793911,0.034388402458822846,2.4303306306450114,9.957981313316568,-0.342829924,0.029733144460603125,-92.75,-57.3863591,-19.89429562,-19.19377159,1.141632160000069E-4,-1.42E-04,1.482638978010532E-4,-5.23E-04,-1.83E-04,0.002195848,9.957981313316568,-0.342829924,0.029733144460603125,-0.021112779,0.014670713,3.009757029290483E-4,-100.646216,38.30507118225098,-51.83413906,Classroom
221,0,1.5,1,12.767999649047852,0.068220392,0,149.39999389648438,-86.9110129,40.4279849,-0.937255659,0.01563818,-0.007320111,0.3482149631074331,-0.002832429,0.034418663281260184,2.430198190281692,9.944094676415897,-0.344543229,0.026576593341373668,-84.33333333,-57.5158007,-19.83939564,-19.25635767,1.0230210926202895E-4,-8.30E-05,2.7873613012647163E-4,-0.009289538,-0.002116062,-0.001569689,9.944094676415897,-0.344543229,0.026576593341373668,-0.02112464,0.014730018,4.314479250822542E-4,-100.7755358,38.360459327697754,-51.89550503,Classroom
222,0,1.5,1,12.767999649047852,0.068220392,0,149.39999389648438,-86.9110129,40.4279849,-0.937366245,0.01593683,-0.007453884,0.34790072192266147,-0.002886993,0.035070886,2.430866317841613,9.906942052748597,-0.352470906,0.028647081841979158,-88.375,-57.48908295,-19.91491358,-19.26538561,2.683576685828564E-4,-8.30E-05,8.895834320161528E-5,-0.018033287,-0.003367969,-1.91E-04,9.906942052748597,-0.352470906,0.028647081841979158,-0.020958584,0.014730018,2.416701325061686E-4,-100.7491839,38.28481937408447,-51.90636299,Classroom
223,0,1.5,1,12.767999649047852,0.068220392,0,149.39999389648438,-86.9110129,40.4279849,-0.937361737,0.016051763234641945,-0.007457037,0.34790754086762954,-0.00281259,0.035288624,2.4308494063257013,9.897629200833515,-0.350426552,0.027563923,-81.66666667,-57.44089272,-19.89819963,-19.25757763,-5.19E-05,-8.30E-05,2.0756945240049107E-4,-0.006163199,-8.71E-04,-1.38E-04,9.897629200833515,-0.350426552,0.027563923,-0.021278834,0.014730018391771224,3.6028124622602774E-4,-100.7003841,38.30214309692383,-51.89794514,Classroom
224,0,1.5,1,12.767999649047852,0.068220392,0,149.39999389648438,-86.9110129,40.4279849,-0.93733984,0.016036650040545143,-0.007476202,0.3479668841912196,-0.002856822,0.035273834167478174,2.430723641927426,9.904183350720452,-0.350263932,0.028223110716936894,-79.22222222,-57.46761093,-19.9047875,-19.18693951,-9.40E-05,1.1747062671929598E-5,1.2921769162998177E-4,0.00215822,-8.97E-04,1.3257303418448338E-4,9.904183350720452,-0.350263932,0.028223110716936894,-0.021320918,0.014824793253165599,2.8192949629066367E-4,-100.7278338,38.29421333312988,-51.82779507,Classroom
225,0,1.5,1,12.767999649047852,0.068220392,0,149.39999389648438,-86.9110129,40.4279849,-0.937331024,0.016062079,-0.007474205,0.34798938817190894,-0.002834523,0.035320131,2.4306749857745125,9.905861798999378,-0.34965992,0.024227328794879512,-90,-57.4688308,-19.90149355,-19.15985569,9.044095900958603E-5,5.930555007845453E-5,2.905972396900642E-4,0.001425762,4.1747382543619397E-4,-0.003773756,9.905861798999378,-0.34965992,0.024227328794879512,-0.021136501,0.014872351720097285,4.4330906516248453E-4,-100.7289321,38.29884925842285,-51.79949112,Classroom
226,0,1.5,1,12.767999649047852,0.068220392,0,149.39999389648438,-86.9110129,40.4279849,-0.937362739,0.015948925348161495,-0.007502451,0.3479085654309652,-0.002969347,0.035127362,2.4308507141557714,9.920032853061713,-0.348263138,0.030154211,-61.75,-57.46297489,-19.89307571,-19.1664436,5.485766253081485E-5,-2.73E-04,1.957083450973902E-4,0.009354786,1.1918932488821086E-4,7.991437411424025E-4,9.920032853061713,-0.348263138,0.030154211,-0.021172085,0.014540240598064892,3.4842014005317273E-4,-100.7227096,38.306779098510745,-51.80632294,Classroom
