seconds_elapsed,accelerometerUncalibrated_z,accelerometerUncalibrated_y,accelerometerUncalibrated_x,orientation_qz,orientation_qy,orientation_qx,orientation_qw,orientation_roll,orientation_pitch,orientation_yaw,magnetometer_z,magnetometer_y,magnetometer_x,microphone_dBFS,totalAcceleration_z,totalAcceleration_y,totalAcceleration_x,magnetometerUncalibrated_z,magnetometerUncalibrated_y,magnetometerUncalibrated_x,location_bearingAccuracy,location_speedAccuracy,location_verticalAccuracy,location_horizontalAccuracy,location_speed,location_bearing,location_altitude,location_longitude,location_latitude,gyroscopeUncalibrated_z,gyroscopeUncalibrated_y,gyroscopeUncalibrated_x,accelerometer_z,accelerometer_y,accelerometer_x,gyroscope_z,gyroscope_y,gyroscope_x,class
0,9.729930131863325,1.8884048935694573,-0.565381045,0.9917423274272528,0.097488245,-0.021083618,0.080613374,0.058637533,-0.191128834,-2.973757781,4.932113441,-53.11699158,8.808399847996087,-76.5,9.731339091346378,1.8882717759836287,-0.56395839,-55.69546977,-17.2592933,-26.03201977,0,1.7930141687393188,1.206675649,9.628000259399414,0,0,154.89999389648438,-86.9096653,40.4259559,-0.020424226,0.012526284712247359,0.001014163,0.011312864,0.006260534,0.005730993,4.972922936595308E-4,7.674747701877585E-4,4.033157840753213E-4,Drive
1,9.651046503,2.091341509402377,-0.558639877,0.9915114421288944,0.099270561,-0.020623122,0.081298924,0.05817205,-0.194734029,-2.972284967,5.205495901107788,-52.11107899,8.904779806137086,-49.75,9.651046503,2.091341509402377,-0.558639877,-55.45400085,-16.23124566,-25.95598747,0,1.7930141687393188,1.206675649,9.628000259399414,0,0,154.89999389648438,-86.9096653,40.4259559,-0.020543445,0.012191740479501128,0.00333742,-0.051236467,0.1605954737339205,0.006007469,3.780728987038353E-4,4.32930590621042E-4,0.002726573,Drive
2,9.406885637820345,3.2900759687701475,-0.542476704,0.987104672,0.13574114449035662,-0.016617824,0.08151766,0.057045818,-0.268563138,-2.969105152,4.690777907371521,-50.75931889,8.647725811004639,-19.44444444,9.406885637820345,3.2900759687701475,-0.542476704,-55.96884079,-14.87972969,-26.21352947,0,1.7930141687393188,1.206675649,9.628000259399414,0,0,154.89999389648438,-86.9096653,40.4259559,-0.020157959,0.008857285,0.00287803,-0.133686432,0.6585637032985687,0.002200715,7.635590289003E-4,-0.002901525,0.002267183,Drive
3,9.437783269048895,3.2213752223450003,-0.499202624,0.9816053654383687,0.17210840990821136,-0.010522027,0.081790931,0.051852248,-0.342851005,-2.966354565,3.986471929550171,-52.0371471,8.620153770446777,-22.25,9.437783269048895,3.2213752223450003,-0.499202624,-56.67375675,-16.15719166,-26.23951551,86.92829132080078,3.7416841983795166,1.2166023254394531,8.342000007629395,1.5111356973648071,269.18695068359375,154.89999389648438,-86.910003,40.4259122,-0.019808057,0.00418549,0.001641281,0.047630699,-0.135056873,-0.011834267,0.001113462,-0.00757332,0.001030434,Drive
4,9.791578311364628,1.5212776533608299,-0.475457347,0.9876892028503048,0.1302977353334427,-0.013007623,0.082226924,0.048798544,-0.258253774,-2.96914402,5.166333885192871,-52.70692692,9.409127864837647,-37.66666667,9.791578311364628,1.5212776533608299,-0.475457347,-55.49365097,-16.82697165,-25.45054148,19.707698822021484,3.4807615280151367,1.0388028621673584,7.289000034332275,2.6022331714630127,267.0202331542969,154.89999389648438,-86.9101022,40.4259063,-0.020187612,0.011610545902354732,-0.004170663,0.2132774834493989,-1.01275015,-0.007606288,7.33906245514642E-4,-1.48E-04,-0.004781511,Drive
5,9.819146156311035,1.583243312743994,-0.496007398,0.9923604489530174,0.089016419,-0.017609376,0.08349829,0.05060492,-0.174620526,-2.969278451,5.980683879852295,-51.99591125,9.268705825805664,-34.625,9.819146156311035,1.583243312743994,-0.496007398,-54.680033,-16.11583362,-25.59071957,33.87008285522461,3.9025375843048096,1.0488049983978271,6.612999916,2.794306993484497,267.9967346191406,154.89999389648438,-86.910153,40.4259205,-0.018325418,0.012393379313826055,1.2305906230077436E-4,0.051914576187874505,-0.142098806,-0.004734606,0.002596101,6.34569530058833E-4,-4.88E-04,Drive
6,9.803182426008206,1.3369577023589496,-0.47032323,0.9932617955994838,0.077380757,-0.017295652,0.084397661,0.047988065,-0.151379901,-2.968413642,5.048359875679016,-51.99066521,9.330071840286255,-33.33333333,9.803182426008206,1.3369577023589496,-0.47032323,-55.61186886,-16.11083169,-25.53093954,41.95210647583008,3.8996410369873047,1.0587729215621948,6.164000034332275,2.421109676361084,268.1085205078125,154.89999389648438,-86.9101701,40.4259374,-0.01813564,0.008633407,-0.001822163,-0.003672896,-0.155870071,0.002605703,0.002785879,-0.003125403,-0.002433011,Drive
7,9.870924839,1.0332667052167133,-0.403559411,0.9944011372269936,0.060881774185351956,-0.015660392,0.084840017,0.041784551,-0.118704877,-2.96887738,4.729207901954651,-52.50477299,9.033123846054076,-35.5,9.870924839,1.0332667052167133,-0.403559411,-55.93065514,-16.62493971,-25.82715549,47.64786911010742,3.7609174251556396,1.0688108205795288,5.810999870300293,2.1168808937072754,267.9884338378906,154.89999389648438,-86.9101964,40.4259286,-0.018894751,0.006510268,-3.11E-05,0.0191258,-0.141795558,0.010038605448111746,0.002026767,-0.005248542,-6.42E-04,Drive
8,9.777639583476539,1.5634801827588127,-0.367669975,0.9941900841240744,0.064601876,-0.013363811,0.084669698,0.037822407317682376,-0.126535658,-2.969285115,4.433601918,-52.65153885,8.560129843,-35.55555556,9.777639583476539,1.5634801827588127,-0.367669975,-56.22540691,-16.77146171,-26.30161339,46.76825714111328,3.0009331703186035,1.0787644386291504,4.862999916,1.2908351421356201,268.1352844238281,154.89999389648438,-86.910215,40.4259286,-0.019997834,0.009131574,0.003384865,-0.045118415,0.2992903393449135,-5.40E-04,9.236840403512192E-4,-0.002627236,0.002774018,Drive
9,9.535610189715635,2.888598671237242,-0.470697833,0.9896301489609939,0.11607495917437169,-0.010416743,0.082244299,0.040794484,-0.230124509,-2.970984044,3.417707920074463,-52.08033516,7.972577838897705,-26,9.535610189715635,2.888598671237242,-0.470697833,-57.24313068,-16.20025776,-26.88770147,47.620025634765625,3.0516388416290283,1.3580176830291748,4.173999786376953,0.7382656931877136,268.2025146484375,155,-86.9102287,40.425926,0.004087978,0.017491376457306054,-4.70E-05,-0.104726608,0.6221815049648285,-0.073239688,0.025009496591967315,0.005732567,-6.58E-04,Drive
10,9.494514086,3.174311542973935,-1.000063381,0.7566042490375852,0.1177224022092171,-0.01521973,0.040753926077599915,0.064147779,-0.306590923,-2.625742651,4.971255915164948,-54.88462677,7.264855866,-24.875,9.494514086,3.174311542973935,-1.000063381,-55.68946102,-19.00467161,-27.5953014,41.6469841,1.5805062055587769,1.3679689168930054,4.129000186920166,1.3604103326797485,265.9924621582031,155,-86.9102493,40.4259157,0.1579425645974076,0.034028047,-0.00605658,-0.029109446,0.1527379577599683,-0.388528701,0.17886408367781964,0.022269237,-0.006667427,Drive
11,9.513293674,2.7113584569356974,-1.463527578,-0.981727281,-0.145056195,0.061847065,0.094315661,0.099297294,-0.302301357,2.9651511826561494,6.003009867668152,-61.14115284,4.676381902694702,-16.25,9.513293674,2.7113584569356974,-1.463527578,-54.65673088,-25.26095352,-30.18353127,30.017885208129883,1.8597042560577393,1.3779395818710327,4.013999938964844,2.6402554512023926,257.03594970703125,155,-86.9102801,40.4259017,0.32597893534354794,0.063218243,-0.006661497,0.001428993,-0.269998134,-0.515724539,0.3469004547133029,0.051459433632966095,-0.007272344,Drive
12,9.640043610508002,2.3513431768972897,-1.783953824,-0.950046056,-0.116873359,0.10497695323332999,0.264447207,0.14444276567512346,-0.282572989,2.619189306370263,7.806047825813294,-71.14978867,0.8866959767416119,-24.11111111,9.640043610508002,2.3513431768972897,-1.783953824,-52.85369312,-35.2700774,-33.97272949,4.231421947479248,2.7543601989746094,1.3879425525665283,3.936000108718872,3.5368919372558594,235.5466309,155,-86.9103245,40.4258759,0.38580638430650954,0.095041607,0.007465087,0.085199625,-0.452119021,-0.39387825,0.4067279045442933,0.083282796,0.00685424,Drive
13,9.693663918055021,1.9584131745191722,-1.443280442,-0.902945247,-0.074521461,0.11484667145222135,0.40578463123840036,0.1519331401123584,-0.230065268,2.3145378376673724,7.496777849197388,-79.37942062,-3.706847917,-23.88888889,9.693663918055021,1.9584131745191722,-1.443280442,-53.16332905,-43.49983116,-38.56615128,5.240850925445557,2.6551458835601807,1.3979941606521606,3.9070000648498535,4.183867931365967,209.23162841796875,155,-86.9103615,40.4258355,0.29344390636508905,0.092313551,-0.003672497,0.079338898,-0.335325019,0.030782467,0.314365426,0.080554741,-0.004283344,Drive
14,9.577574692883537,2.809699388383662,-1.09165564,-0.853849462,-0.086209471,0.1279505531764725,0.4965932968172055,0.13854611245463194,-0.277636202,2.1073974729741662,7.813001823425293,-82.15650688,-8.265621848,-23.25,9.577574692883537,2.809699388383662,-1.09165564,-52.84686081,-46.27667316,-43.12541321,6.8781867027282715,2.676060438156128,3.3310461044311523,3.878000020980835,4.380900859832764,189.25941467285156,155,-86.9103805,40.4257873,0.20052395703144443,0.043706715,-0.012710664,0.041071105,0.071721312,0.22220238262009853,0.2214454769798853,0.031947905,-0.013321511,Drive
15,9.538319606225468,2.7594762450283015,-0.313244876,-0.839203699,-0.099334952,0.10589208540696542,0.5239938815820564,0.07672165,-0.281422219,2.0361267918521917,8.148989821150899,-80.73349869,-11.18007978,-15.22222222,9.538319606225468,2.7594762450283015,-0.313244876,-52.51038506,-44.85378704,-46.04072506,8.345139503479004,2.638219118118286,3.341001033782959,3.878000020980835,4.819764137268066,175.0876465,155,-86.9103823,40.425737,0.047456309,0.020031935359618076,-0.00189333,-0.053869136,-0.023113714,0.42733824658162384,0.068377827,0.008273125,-0.002504177,Drive
16,9.518178032,2.9235239839090883,-0.075806596,-0.851022723,-0.119521199,0.084162423,0.504249497,0.023748358998161096,-0.292554594,2.075279007,6.208335872478783,-83.45946648,-10.41111382,-18.625,9.518178032,2.9235239839090883,-0.075806596,-54.45164902,-47.57926723,-45.27127098,8.971181869506836,3.2430386543273926,3.350992202758789,3.878000020980835,5.476025104522705,172.9622039794922,155,-86.9103877,40.4256706,-0.014190452,0.018407647,0.001174706,-0.039648212,0.044402758,0.15030052054386872,0.006731067,0.006648837,5.638590099316878E-4,Drive
17,9.517402728,2.742807802644748,-0.131672036,-0.86810114,-0.121346905,0.076171424,0.47516672559154843,0.017614400936561882,-0.287010393,2.1424972432330973,7.071851878166199,-82.22189842,-10.37561185,-17.33333333,9.517402728,2.742807802644748,-0.131672036,-53.58837692,-46.34182114,-45.23552509,8.206166267,2.922464609146118,3.361003875732422,3.878000020980835,6.641213417053223,176.90419006347656,155,-86.9103967,40.4256013,-0.016392057,0.020447074,-0.004265552,-0.002310114,-0.067490667,0.036044018,0.004529462,0.008688264,-0.0048764,Drive
18,9.653883609956909,2.305179707054953,-0.170360841,-0.883240441,-0.117052945,0.069505167,0.44858396516262905,0.018341185,-0.272528922,2.2042256396951028,7.319267845153808,-82.19749809,-10.71416185,-24.75,9.653883609956909,2.305179707054953,-0.170360841,-53.34059498,-46.31742123,-45.57407494,7.243372917175293,2.8606293201446533,3.3709895610809326,3.881000042,7.752673625946045,177.96063232421875,155,-86.9104017,40.4255251,-0.020602751,0.010709101,0.003183226,0.083163373,-0.37024498,0.005180584,3.187673294112014E-4,-0.001049708,0.002572379,Drive
19,9.708358074854878,1.8796493046492049,-0.148372428,-0.899862782,-0.090908458,0.053231757,0.42314718533488155,0.019217677893641504,-0.210227199,2.2645019489584617,9.438895826339722,-78.95351868,-10.29289573,-18.66666667,9.708358074854878,1.8796493046492049,-0.148372428,-51.22084499,-43.07344105,-45.15268703,7.182537078857422,3.367877721786499,6.789712429046631,3.9560000896453857,8.262453079223633,179.96531677246094,154.89999389648438,-86.9104035,40.4254481,-0.019048946,0.013105046059438977,0.001854781,0.014265787254259425,-0.189216956,0.037928562,0.001872573,0.001346236,0.001243934,Drive
20,9.697747762386616,2.376832138460416,-0.188089665,-0.909716177,-0.092085685,0.050882565,0.40162268714997373,0.019058118818454373,-0.209961993,2.3121098268379288,9.82124382,-79.01366432,-10.38207779,-16.22222222,9.697747762386616,2.376832138460416,-0.188089665,-50.83910709,-43.13358734,-45.24089306,6.787662506103516,3.2476606369018555,6.799692153930664,3.9560000896453857,8.563967705,180.98663330078125,154.89999389648438,-86.9104087,40.4253689,-0.024018752,0.015441685137949268,-4.46E-04,-0.023094011,0.30533607955117825,-0.005685281,-0.003097233,0.003682875,-0.001057122,Drive
21,9.658277224568488,2.259965807488821,-0.211207253,-0.917080979,-0.099799904,0.053288221142245726,0.3822660373831258,0.022008267439250807,-0.225707986,2.354229401616217,9.040687804222108,-78.65181259,-9.745115795,-18,9.658277224568488,2.259965807488821,-0.211207253,-51.61954098,-42.77185722,-44.60527325,5.885359287261963,2.873412609100342,6.809588432312012,3.946000099182129,8.828074455,181.9904022216797,154.89999389648438,-86.9104152,40.4252866,-0.022026084,0.013199934939903579,-3.40E-04,-0.028474539,0.035259367192833166,0.008136549,-0.001104566,0.001441125,-9.50E-04,Drive
22,9.668635442,2.053207350008696,-0.207902602,-0.924675707,-0.099126583,0.049780236394370646,0.3641782139690177,0.020324854487643658,-0.221396446,2.393474597,9.417667808532714,-79.06295258,-10.12148582,-21.77777778,9.668635442,2.053207350008696,-0.207902602,-51.242561,-43.18299709,-44.98115501,5.907033443450928,3.227584124,6.8196635246276855,3.9790000915527344,9.025604248046875,182.99191284179688,154.89999389648438,-86.9104197,40.4252031,-0.020460418,0.006842379,-5.65E-04,0.009948175,-0.116385107,-0.011986334,4.6110068034217917E-4,-0.004916431,-0.001175733,Drive
23,9.715548181996763,1.8077716931556036,-0.189677657,-0.932563164,-0.087452838,0.042919629,0.3475676812593219,0.019599604,-0.19416545,2.4299879861109464,9.228079814910888,-78.70585838,-9.897493849,-24.25,9.715548181996763,1.8077716931556036,-0.189677657,-51.43190495,-42.82565948,-44.7571632,5.090209007263184,2.632052421569824,6.82960844,3.9660000801086426,9.745019912719727,181.02760314941406,154.89999389648438,-86.9104117,40.4251074,-0.019333612,0.013045740440415525,-4.34E-04,0.015612963,-0.100663995,3.0703726902748775E-4,0.001587906,0.001286931,-0.00104526,Drive
24,9.782985705773807,1.643491646618519,-0.148119786,-0.93878217,-0.08163362,0.037254596,0.33256907703784794,0.015876666320344575,-0.179020148,2.462098465516017,10.343891820907594,-78.77637428,-9.853573837,-23.88888889,9.782985705773807,1.643491646618519,-0.148119786,-50.31536118,-42.8965411,-44.71385319,4.8211774826049805,2.573810338973999,1.9279690980911255,3.9660000801086426,9.681017875671387,181.00064086914062,156.29998779296875,-86.9104186,40.425024,-0.020005248,0.007001249,-0.001292177,0.036657379,-0.118161591,0.003596126,9.162708391578725E-4,-0.00475756,-0.001903024,Drive
25,9.971536691906383,0.6804124770812618,-0.153776605,-0.946130299,-0.052252447,0.025640906856476683,0.31818406963811335,0.015250156877688992,-0.115470506,2.4936225599455604,12.106913805007935,-78.37328644,-9.277611804,-29.75,9.971536691906383,0.6804124770812618,-0.153776605,-48.55294914,-42.49308723,-44.13776909,4.670658588409424,2.537755012512207,1.938000202178955,3.9230000972747803,9.294701576,180.99472045898438,156.29998779296875,-86.9104044,40.4249325,-0.022559835,0.013425296082079988,-0.005356775,0.098863037,-0.464446192,-0.003174403,-0.001638316,0.001666486,-0.005967622,Drive
26,10.013312256451949,0.34474069744493196,-0.176885928,-0.951771695,-0.022853656,0.016109267150241774,0.3054647283646667,0.016690705,-0.053369601,2.5209169873913515,12.482063827514649,-78.13697243,-9.830271835,-32.22222222,10.013312256451949,0.34474069744493196,-0.176885928,-48.17853111,-42.25701714,-44.69079521,4.589714050292969,2.4712142944335938,1.9478987455368042,3.9230000972747803,8.768430709838867,180.99339294433594,156.29998779296875,-86.9103962,40.4248441,-0.022903807,0.013472741,-0.001312136,0.022738660423501023,-0.188924619,-0.010096228,-0.001982288,0.001713931,-0.001922983,Drive
27,10.003796118956346,0.5669177805001919,-0.150023078,-0.955404201,-0.019694417,0.014475941,0.2942419390655258,0.016114569,-0.046172321,2.5444444360084906,12.344081792831421,-75.98989479,-8.551955824,-29.375,10.003796118956346,0.5669177805001919,-0.150023078,-48.31578114,-40.1098172,-43.41186932,4.687471866607666,2.339444398880005,1.9579579830169678,3.9000000953674316,7.521633148193359,180.9874267578125,156.29998779296875,-86.9103932,40.4247751,-0.02400689,0.008752018,0.005140309,-0.003432755,0.10476349236317051,0.009891526,-0.003085372,-0.003006792,0.004529462,Drive
28,9.885023302244909,0.8484327671597305,-0.092527316,-0.958196644,-0.032783133,0.014698150603878267,0.28381457519762726,0.009598956,-0.071235618,2.5660026652141683,9.242963829040526,-76.43922043,-8.913441815,-30.44444444,9.885023302244909,0.8484327671597305,-0.092527316,-51.41677719,-40.55914314,-43.77323311,4.876312732696533,2.200568199157715,1.9678962230682373,3.9000000953674316,5.959007740020752,181.95668029785156,156.29998779296875,-86.910387,40.4247162,-0.026058863,0.004861573,-0.001845886,-0.05446284,0.13357334750369915,0.00457348,-0.005137344,-0.006897236,-0.002456733,Drive
29,9.828365145377742,1.4480874798830272,-0.067321368,-0.960518212,-0.050191248,0.019164554621047766,0.27287646838762225,0.009525685,-0.10708239,2.588517327910488,10.101355791091919,-78.18284439,-7.253753867,-30.5,9.828365145377742,1.4480874798830272,-0.067321368,-50.55814114,-42.30288918,-42.11342312,5.092486381530762,2.1560380458831787,1.978002905845642,3.9000000953674316,4.971285820007324,181.9724578857422,156.29998779296875,-86.9103811,40.4246683,-0.028490391,0.014042074,-4.58E-04,-0.049066882,0.38269704001621135,0.032046671,-0.007568872,0.002283264,-0.001068983,Drive
30,9.830415253500336,1.6065626150196037,-0.125123718,-0.962837082,-0.063721105,0.02610623,0.2610856621589476,0.017196107556301993,-0.136760015,2.613194092963506,9.648003807067871,-80.35639626,-9.330071793,-28.77777778,9.830415253500336,1.6065626150196037,-0.125123718,-51.01173695,-44.47631908,-44.18937531,5.329411983,2.1967248916625977,1.9879913330078125,3.9000000953674316,4.301099777,182.96224975585938,156.29998779296875,-86.9103798,40.4246279,-0.03424303,0.023697018935865028,0.002222476,0.044965781,0.25870083431595736,0.036917469,-0.013321511,0.011938209017033427,0.001611629,Drive
31,9.794810406212667,1.6317801764867839,-0.276858873,-0.964602856,-0.072371019,0.033211918673119865,0.2513700435654475,0.028050935,-0.156953947,2.6339567326582394,8.453623834,-78.46881241,-8.600999837,-28.77777778,9.794810406212667,1.6317801764867839,-0.276858873,-52.20648304,-42.58885723,-43.46262123,5.549309730529785,2.204948902130127,1.9978770017623901,3.9000000953674316,4.010043621063232,183.9774627685547,156.29998779296875,-86.9103794,40.4245956,-0.033925517,0.020909771833640452,0.001891277,-0.005434421,0.079568353,-1.01E-04,-0.013003998,0.009150962,0.00128043,Drive
32,9.671603286,2.050640294852766,-0.322993307,-0.965491655,-0.085321108,0.039058052,0.24285502890938693,0.034606848,-0.184781343,2.651957972535809,8.414827795028687,-79.16067451,-7.021831865,-10.5,9.671603286,2.050640294852766,-0.322993307,-52.24491291,-43.28071888,-41.88186714,5.731809139251709,2.0532169342041016,2.0078818798065186,3.9000000953674316,3.849543809890747,184.9848633,156.29998779296875,-86.9103781,40.4245629,-0.035346113,0.011456351560535977,7.279757280309585E-4,-0.057185636,0.23117817952794936,0.013808902316880457,-0.014424594,-3.02E-04,1.1712850977946977E-4,Drive
33,9.608425769991088,2.397529882134743,-0.316157499,-0.965448713,-0.106158983,0.04199961,0.23419283301506227,0.03222773,-0.226594336,2.669308282796619,9.485255827903748,-78.47222847,-5.983977895,-25.77777778,9.608425769991088,2.397529882134743,-0.316157499,-51.17424114,-42.59202915,-40.84328121,5.887378692626953,2.025660276412964,2.017879009246826,3.9000000953674316,3.906411886,186.00144958496094,156.29998779296875,-86.9103729,40.4245288,-0.038097891,0.007898018,4.1958685564238903E-4,-0.025416161,0.17528431392410426,-0.005570932,-0.017176372,-0.003860792,-1.91E-04,Drive
34,9.593032124,2.4929117462010058,-0.352796145,-0.966164423,-0.11633194,0.044027175,0.22593227144583916,0.033542768,-0.247198914,2.686326913463259,9.879681754112244,-79.79409874,-6.032655878,-33.25,9.593032124,2.4929117462010058,-0.352796145,-50.77993698,-43.9141433,-40.89244732,5.934423446655273,1.9896230697631836,2.0279181003570557,3.9000000953674316,4.429316520690918,188.0418701171875,156.29998779296875,-86.910378,40.4244902,-0.021243251,0.006949129,0.001546392,-0.014675853,0.066932665,-0.03040363,-3.22E-04,-0.004809681,9.355452397693564E-4,Drive
35,9.724281678,2.3267352936359553,-0.4193623,-0.967096295,-0.117605036,0.044422402,0.2211595753442894,0.03499533,-0.249708878,2.6963509332786484,9.916647787094115,-78.72647652,-5.669949884,-29.44444444,9.724281678,2.3267352936359553,-0.4193623,-50.74370308,-42.84652115,-40.53108315,5.853542804718018,1.9673585891723633,2.037871837615967,3.9000000953674316,5.099481582641602,188.0573272705078,156.29998779296875,-86.9103839,40.4244471,0.0036295,8.881008218594112E-4,0.008319087,0.06988268,-0.133958446,-0.083153986,0.024551019,-0.010870709,0.00770824,Drive
36,9.805337054058185,1.653179095786752,-0.387648883,-0.971108099,-0.092645819,0.038793782115850634,0.21630393229063274,0.035935702,-0.198025893,2.7068293511288837,8.524749870300292,-80.12374268,-4.828149903,-37.375,9.805337054058185,1.653179095786752,-0.387648883,-52.1352351,-44.24354328,-39.68879524,5.722934246063232,1.939819574356079,2.0480852127075195,3.9000000953674316,5.740871429443359,186.04803466796875,156.29998779296875,-86.9103898,40.4243982,0.010081945027866699,0.012322212637795442,-0.00103933,0.050977133,-0.301533306,-0.035717247,0.031003464393100692,5.634028139044938E-4,-0.001650177,Drive
37,9.778513695,1.6036557989213074,-0.252213381,-0.974207505,-0.079060353,0.032511572,0.20880980037369776,0.030759914769131005,-0.168418164,2.7219028102541434,9.440725822,-79.76079231,-5.72216589,-34.33333333,9.778513695,1.6036557989213074,-0.252213381,-51.22023499,-43.88071518,-40.58171322,5.658329963684082,1.9037857055664062,2.0579397678375244,3.9000000953674316,5.768038272857666,184.01333618164062,156.29998779296875,-86.9103889,40.4243457,-0.001269139,0.018549297,-0.005012802,-0.012389174,-0.063087533,0.046972624,0.019652379848497006,0.006790487,-0.00562365,Drive
38,9.789307520227524,1.7550337661817237,-0.137735401,-0.975840679,-0.079572089,0.026287294,0.20173115182954532,0.019477706715966072,-0.166686658,2.735503953,9.275293841,-79.99210442,-5.111921868,-30,9.789307520227524,1.7550337661817237,-0.137735401,-51.38505711,-44.11190506,-39.97146908,5.627624034881592,1.8730189800262451,2.0679972171783447,3.9000000953674316,5.514969348907471,182.99818420410156,156.29998779296875,-86.9103939,40.4242922,-0.020580854,0.004346413,1.527118399210919E-4,-0.007042289,0.10644109203265263,0.052893109,3.4066476935270027E-4,-0.007412397,-4.58E-04,Drive
39,9.711839907,2.150000513178631,-0.008673983,-0.975936612,-0.095314454,0.020093516,0.19493854696889526,0.002111994,-0.195132095,2.7474618467312415,8.844999880790711,-79.6334243,-5.407161894,-29.22222222,9.711839907,2.150000513178631,-0.008673983,-51.81498524,-43.75334702,-40.26719723,5.610528469085693,2.119999885559082,2.0779194831848145,3.9000000953674316,5.464344024658203,182.99778747558594,156.29998779296875,-86.9103984,40.4242419,-0.021646529,-0.0044494,-0.001857747,-0.034397709,0.22361284089319913,0.012049243143461282,-7.25E-04,-0.016208209,-0.002468594,Drive
40,9.543764429184996,2.4826812709419475,0.059829278,-0.974899841,-0.117105947,0.017507616973039018,0.18850110124037103,-0.010291261,-0.237156058,2.7583682513931422,8.178391852378844,-79.09918594,-6.983767858,-23.88888889,9.543764429184996,2.4826812709419475,0.059829278,-52.48208107,-43.21923145,-41.84429123,5.510008335113525,1.9248117208480835,2.087878465652466,3.9000000953674316,5.573668003082275,183.00291442871094,156.29998779296875,-86.9103951,40.4241921,-0.020116446,0.003319629,-0.005783775,-0.081563079,0.15615297752676657,-0.03919622,8.050729356733268E-4,-0.008439181,-0.006394622,Drive
41,9.740158775477733,2.410548110610073,0.081074291,-0.974887327,-0.122958925,0.020155067,0.18456072150503547,-0.006281292,-0.249768501,2.766606020695955,13.783925828933716,-79.38271461,-11.02782378,-26.25,9.740158775477733,2.410548110610073,0.081074291,-46.87581505,-43.50275921,-45.8882251,3.7690324783325195,1.7839843034744263,2.097975969314575,3.9000000953674316,6.227174758911133,180.00790405273438,156.29998779296875,-86.9103935,40.424135,-0.019760612,0.024764519,0.017108170961558783,0.12378782,-0.0425574,0.020614032443721318,0.001160906,0.013005709049554125,0.016497324081250802,Drive
42,9.662887995059673,2.3434994358282824,0.21602989711027476,-0.975702883,-0.127598189,0.016032339010423828,0.17727933693858025,-0.014433444,-0.257548583,2.780260998068504,9.201117849349975,-79.45225441,-9.71132184,-26.44444444,9.662887995059673,2.3434994358282824,0.21602989711027476,-51.45911102,-43.57229904,-44.57282108,3.6636993885040283,1.7839843034744263,2.1078622341156006,3.9000000953674316,6.886303424835205,179.99998474121094,156.29998779296875,-86.910388,40.4240724,-0.027719418,-0.017401734,0.010371059719563543,0.085870761,-0.17845898,0.080053605,-0.0067979,-0.029160543,0.009760212,Drive
43,9.503028323349444,2.166210142154138,0.23025981277352858,-0.977626843,-0.123343204,0.007258839,0.17017740575433934,-0.028664645,-0.246117536,2.7933484882984345,9.906399812698364,-80.79840263,-10.1095298,-25.375,9.503028323349444,2.166210142154138,0.23025981277352858,-50.75358494,-44.91893501,-44.96883335,3.5705084800720215,1.7617321014404297,2.1179616451263428,3.9000000953674316,7.395018100738525,180.99960327148438,156.29998779296875,-86.9103864,40.4240048,-0.018954057,0.018288352042979118,-0.02515297,-0.098863852,-0.240784949,-0.047406899,0.001967462,0.006529542,-0.025763817,Drive
44,9.887703580763734,1.7629643516633118,-0.090224515,-0.980038775,-0.100856179,0.016821516,0.17035875534548342,-0.001428826,-0.204860733,2.7971888236629154,10.126609802246094,-79.95160034,-9.647393818,-28.55555556,9.887703580763734,1.7629643516633118,-0.090224515,-50.53349689,-44.07140114,-44.50669712,3.4927964210510254,1.8613166809082031,2.127927541732788,3.878000020980835,7.939621925354004,181.00352478027344,156.29998779296875,-86.9103887,40.4239333,-0.004459778,0.038725047752044155,0.012114643076326228,0.15430968016096688,-0.260665267,-0.100344861,0.016461741,0.026966237750139486,0.011503796124812758,Drive
45,9.733404316948455,1.8017025225370833,-0.546100789,-0.978773545,-0.092101231,0.039193649242803885,0.17862454230345567,0.044698464,-0.195594136,2.784921342886767,10.397571840286254,-78.37511635,-9.207583814,-26.875,9.733404316948455,1.8017025225370833,-0.546100789,-50.26229103,-42.49516106,-44.06700886,3.4609718322753906,1.7066048383712769,2.1380152702331543,3.878000020980835,7.891174316,180.00399780273438,156.29998779296875,-86.9103892,40.4238651,0.012833723,0.051570632,-0.004656969,-0.051063176,-0.142329965,-0.101649175,0.033755242,0.039811822,-0.005267816,Drive
46,9.671562616107533,2.152277167560985,-0.267818998,-0.977440988,-0.093383388,0.042417627,0.18452492356300354,0.049459113,-0.199546124,2.773340188539945,11.099071803092956,-74.65826393,-10.12941577,-22.44444444,9.671562616107533,2.152277167560985,-0.267818998,-49.56103493,-38.77818727,-44.98847515,3.471534013748169,1.811104655265808,2.148003101348877,3.878000020980835,7.860854148864746,178.00836181640625,156.29998779296875,-86.9103876,40.4237979,-0.020428142,0.004557861,-0.004134966,-0.034274872,0.18625460335841545,0.20771774363059264,4.933767452782306E-4,-0.007200949,-0.004745813,Drive
47,9.833165252092973,2.255200491368192,-0.056173252,-0.978925516,-0.10325458,0.026608715846555903,0.17404412225033472,0.016536513074454896,-0.213062442,2.7914368458164547,1.5546459621563553,-78.27971264,6.579825910478831,-16.44444444,9.833165252092973,2.255200491368192,-0.056173252,-59.10546104,-42.39987904,-28.28008751,3.454087972640991,1.8610212802886963,2.1580538749694824,3.878000020980835,8.370644569396973,178.99258422851562,156.29998779296875,-86.9103843,40.4237253,-0.040992002,-0.008019594,0.001463365,0.1430161485394228,0.1584208324117568,0.10425250275621137,-0.020070484,-0.019778404,8.525174892127731E-4,Drive
48,9.509983215517211,2.5221396013370994,0.032950676,-0.980046268,-0.114116621,0.019758426,0.16150424202669014,0.001924136,-0.23214171,2.8151722533031576,11.281095848083496,-77.17756439,-9.395829861,-15.875,9.509983215517211,2.5221396013370994,0.032950676,-49.37815701,-41.29748714,-44.25671894,3.513225555419922,1.9895727634429932,2.1679069995880127,3.881000042,7.994705677032471,180.98817443847656,156.29998779296875,-86.9103886,40.4236528,-0.03072028,0.012535712713922727,0.008283504,-0.134946235,0.24196588414386638,0.051535978,-0.009798761,7.76902749881293E-4,0.007672657,Drive
49,9.617444497,1.9343238845467567,-0.086170377,-0.981764112,-0.104925808,0.023567417509926174,0.15666158916880785,0.013698436658901787,-0.215064377,2.8265775615729174,11.471537799835206,-77.33140656,-10.71452775,-23.88888889,9.617444497,1.9343238845467567,-0.086170377,-49.18917896,-41.45145111,-45.57444099,3.4208297729492188,1.7362315654754639,2.1779768466949463,3.9000000953674316,9.089899063110352,182.00509643554688,156.29998779296875,-86.9103972,40.4235669,-0.021480473,0.025250824500616748,-0.010836608,-0.061969141,-0.176713983,0.036808578,-5.59E-04,0.013492014894298123,-0.011447455,Drive
50,9.876448061859723,1.9114877830431298,-0.264592752,-0.982218653,-0.100871844,0.022449871,0.15670411693818362,0.012758092819125329,-0.206657971,2.826498936680914,9.185623856186867,-77.56198669,-10.76979377,-23.75,9.876448061859723,1.9114877830431298,-0.264592752,-51.47460522,-41.68178734,-45.63031719,3.3704710006713867,1.8507566452026367,2.187934637069702,3.9000000953674316,9.981017112731934,181.00987243652344,156.29998779296875,-86.9103947,40.4234751,-0.005681473,-0.008434733,0.006290837,0.17263541175323782,-0.12379683,-0.133962243,0.015240046,-0.020193543,0.00567999,Drive
51,9.716680693,1.9043412590489803,0.05658561,-0.983005352,-0.095758042,0.016405804308800443,0.15574324521624927,0.002472405,-0.194602229,2.827575341011714,12.040301780700684,-77.43510605,-14.73088968,-22.66666667,9.716680693,1.9043412590489803,0.05658561,-48.61992695,-41.55490728,-49.59153515,3.301487684249878,1.653602123260498,2.1979784965515137,3.9000000953674316,9.931819915771484,180.99986267089844,156.29998779296875,-86.910394,40.4233865,-0.029202058,0.016295685247490997,-0.003352247,-0.011247181,-0.016865185,0.08310283,-0.008280539,0.004536875,-0.003963094,Drive
52,9.759411747015795,1.9202343711575258,0.013349277319983371,-0.98371888,-0.09614194,0.013926160702644621,0.1511915845489039,-0.001704746,-0.194590003,2.8364251470102846,10.095987799465655,-77.38850281,-10.36938982,-26,9.759411747015795,1.9202343711575258,0.013349277319983371,-50.5644849,-41.5084252,-45.23015705,3.2809104919433594,1.7473407983779907,2.2079927921295166,3.9110000133514404,10.016020774841309,181.0003204345703,156.29998779296875,-86.9103945,40.4232955,-0.03146753,0.009297629,0.00397792,0.014743666,0.001530442,-0.002996425,-0.010546011,-0.002461181,0.003367073,Drive
53,9.747395367298312,1.9278629474269533,-0.023980496,-0.984221057,-0.096125149,0.014212726131797982,0.14786888587360197,-4.59E-04,-0.194647883,2.8432994072253885,10.176141815185547,-76.80570839,-12.20512376,-23.11111111,9.747395367298312,1.9278629474269533,-0.023980496,-50.483843,-40.92563118,-47.06564697,3.2142205238342285,1.5868521928787231,2.218026638031006,3.927000045776367,10.271100044250488,181.99559020996094,156.29998779296875,-86.910389,40.4231972,-0.022013995,0.006449137,0.001374406,0.011080320064838115,0.008080335,-0.028941036,-0.001092477,-0.005309672,7.63559146994689E-4,Drive
54,9.717322460656026,1.9694091926500634,-0.01717373,-0.984575705,-0.096820638,0.014150996276548186,0.14503518542618427,-2.23E-04,-0.196011995,2.8490599035059363,9.688873777389526,-76.67394836,-12.45424783,-22.875,9.717322460656026,1.9694091926500634,-0.01717373,-50.97159916,-40.7939933,-47.31403912,3.195943832397461,1.6224980354309082,2.2280309200286865,3.940999984741211,10.097071647644043,181.99879455566406,156.29998779296875,-86.9103945,40.4231084,-0.020685779,0.009546712,-0.001620524,-0.001462603,0.039635102,-0.019337538,2.3573956020556174E-4,-0.002212097,-0.002231372,Drive
55,9.702747733847609,1.9819831142147768,-0.027215454,-0.98466521,-0.099027785,0.015991662701284423,0.14272642019882942,0.003291846,-0.200931657,2.854031750299398,9.186233845,-76.89708672,-12.90442776,-23.33333333,9.702747733847609,1.9819831142147768,-0.027215454,-51.47375111,-41.01688717,-47.76299896,3.1246707439422607,1.5947726964950562,2.2380049228668213,3.9609999656677246,10.705288887023926,181.00755310058594,156.29998779296875,-86.9103926,40.4230085,-0.020792529,0.017137824097146433,-7.07E-04,-0.03759824,-0.001945623,0.004823321,1.2898954531195963E-4,0.005379014,-0.001318066,Drive
56,9.772345774382064,1.9783677626582026,0.030049671,-0.985058584,-0.098977568,0.014593882676105476,0.14016701310005003,0.001026081,-0.200429753,2.859006946526685,9.505263833999633,-76.3394249,-12.39263777,-24.625,9.772345774382064,1.9783677626582026,0.030049671,-51.15484306,-40.45934719,-47.25291718,3.083125352859497,1.641950011253357,2.2479307651519775,3.984999895095825,10.855024337768555,181.0002899169922,156.29998779296875,-86.9103871,40.4229034,-0.025880946,0.009368796,0.002886698,0.058203474989215145,0.004839426,0.040019464145586325,-0.004959427,-0.002390014,0.002275851,Drive
57,9.720770102280836,1.951116783,0.27337423601420596,-0.985714065,-0.099295107,0.003916397,0.1359224245675559,-0.019657821,-0.198121939,2.8655830725882816,10.079029817581176,-76.33564255,-13.09706568,-21.44444444,9.720770102280836,1.951116783,0.27337423601420596,-50.58107704,-40.45568714,-47.9571011,3.0065362453460693,1.4871785640716553,2.2580227851867676,4.0320000648498535,11.131187438964844,181.00059509277344,156.29998779296875,-86.9103863,40.4227964,-0.041169919,0.001670934,-0.001620524,0.010319200534265018,1.7392635345458984E-4,0.08243206,-0.0202484,-0.010087876,-0.002231372,Drive
58,9.756185494580315,1.931934222434331,0.003946414,-0.986397075,-0.098520494,0.008126337,0.13126667567248484,-0.010030451,-0.19777128,2.875995929958751,10.79577977180481,-76.53755264,-11.09821781,-19.375,9.756185494580315,1.931934222434331,0.003946414,-49.86420498,-40.65771919,-45.95959496,2.982003688812256,1.553222417831421,2.268030881881714,4.057000160217285,11.313454627990723,181.99485778808594,156.29998779296875,-86.9103846,40.4226912,-0.028763196,0.023163269000982378,0.001973392,0.005100537,-0.019085521,-0.086739564,-0.007841678,0.011404458966865701,0.001362545,Drive
59,9.773362131952082,1.910776323485143,-0.283836972,-0.986750658,-0.095755321,0.022006091869716506,0.1290340872065535,0.019082811028126954,-0.195903373,2.883405254882516,10.329373798370362,-76.50876053,-9.721325788,-21.55555556,9.773362131952082,1.910776323485143,-0.283836972,-50.33122101,-40.62868317,-44.58172699,2.934803009033203,1.564257025718689,2.2780182361602783,4.066999912261963,11.44537353515625,182.0005645751953,156.29998779296875,-86.9103844,40.4225846,-0.013664001,0.027196047,0.001700587,0.054526088307204755,-0.020897104,-0.098014921,0.007257518,0.015437237059390083,0.00108974,Drive
60,9.701864918458808,1.8007268078118852,-0.37604776,-0.986623832,-0.092450873,0.029644436220853373,0.13091004496583572,0.034933629,-0.191358152,2.881109519646718,8.726781849861146,-77.48732231,-9.58431983,-19.44444444,9.701864918458808,1.8007268078118852,-0.37604776,-51.93308105,-41.60736725,-44.44459927,2.9010274410247803,1.8096684217453003,2.288043499,4.171000003814697,11.962686538696289,181.00799560546875,156.29998779296875,-86.9103768,40.4224738,-0.010184703,0.020557360105717983,-0.00108073,-0.060555206,-0.089882721,-0.035773046,0.010736815398558974,0.00879855,-0.001691577,Drive
61,9.729928359244633,1.5080416300921764,-0.302160649,-0.987889547,-0.078911956,0.028042796,0.13057918673001448,0.035278729,-0.163970823,2.8816585725950965,7.280105867385864,-79.20496063,-10.27166781,-22.75,9.729928359244633,1.5080416300921764,-0.302160649,-53.38000111,-43.32537121,-45.13158112,2.8549327850341797,1.555956244468689,2.297938108444214,4.214000225067139,11.691977500915527,180.00613403320312,156.29998779296875,-86.9103753,40.4223636,-0.016581834,0.016473601785266898,-0.008262747,-0.026922032,-0.107291798,0.042139021,0.004339684,0.004714792,-0.008873594,Drive
62,9.807523732046478,1.902700554977343,-0.377441639,-0.987601889,-0.083549886,0.031037878,0.12916854154137733,0.040343153,-0.173923713,2.885003599148352,7.968063840866089,-80.32528618,-10.4877298,-20.44444444,9.807523732046478,1.902700554977343,-0.377441639,-52.69167686,-44.44520916,-45.34739922,2.8431060314178467,1.5435025691986084,2.307933807373047,4.229000091552734,11.383405685424805,180.0000762939453,156.29998779296875,-86.9103788,40.4222537,-0.015194084,0.006237462,0.004428643,-0.05721345,0.16795353287632026,0.020843007,0.005727434,-0.005521348,0.003817796,Drive
63,9.827671074172825,2.0175444200200943,-0.041575291,-0.986646205,-0.096048296,0.015118735761029048,0.13039703970973932,0.004854399,-0.194701242,2.8792007825906993,7.449197888374329,-79.73480667,-10.54994975,-14.25,9.827671074172825,2.0175444200200943,-0.041575291,-53.21103092,-43.85472904,-45.41096127,2.7712039947509766,1.3875517845153809,2.3180811405181885,5.455999851226807,11.63301944732666,179.99998474121094,156.29998779296875,-86.9103773,40.4221415,-0.008990723,-0.025289373,0.023987615760189745,8.399741163531554E-4,0.079324451,0.00614122,0.011930795908042057,-0.037048183,0.023376768857841967,Drive
64,9.914154442457052,1.930570729363423,-0.071189348,-0.986937599,-0.091768638,0.015614183013806644,0.1311001537494289,0.006894493,-0.186325476,2.8781634812216157,6.471733850240708,-82.36085648,-10.48577776,-14.77777778,9.914154442457052,1.930570729363423,-0.071189348,-54.1880069,-46.48090126,-45.34593502,2.724677324295044,1.4066271781921387,2.328019142150879,6.619999885559082,11.940011978149414,180,156.29998779296875,-86.9103778,40.4220318,-0.017839112,0.048664659,0.002516038,0.1212992066318549,0.07461138,0.006903684,0.003082406,0.036905849,0.001879986,Drive
65,9.598189493,1.9932764328799202,-0.434306021,-0.986089366,-0.093036523,0.030829283309358996,0.13422844696392133,0.036511458,-0.192957713,2.8745440950671446,8.754353842735291,-81.08095413,-12.70324982,-18.75,9.598189493,1.9932764328799202,-0.434306021,-51.90538704,-45.20099918,-47.56352909,2.6840596199035645,1.3737903833389282,2.3380072116851807,7.171999931335449,12.084933280944824,179.0052032470703,156.29998779296875,-86.9103747,40.4219289,-0.008967001,0.016793852,-0.011512692,-0.17028497,0.08830374,-0.082036386,0.011954518239063582,0.005035042,-0.012123539,Drive
66,9.730512017185248,1.9774036540568454,-0.381843965,-0.985502033,-0.095735249,0.035231733,0.1355516052651174,0.044383223014838484,-0.199567662,2.8726610998505526,2.9767999720573424,-77.91712837,-10.48907183,-16.88888889,9.730512017185248,1.9774036540568454,-0.381843965,-57.68379475,-42.03717323,-45.34959511,2.6426355838775635,1.3759360313415527,2.3479766845703125,8.845000267028809,12.254058837890625,178.00479125976562,156.29998779296875,-86.910369,40.4218271,-0.018076334,0.025452463526518348,0.002293642,-0.036593252,0.004039521,0.052409596,0.002845184,0.013693653566997897,0.001682795,Drive
67,9.690655773125807,1.9575670436748023,-0.298100981,-0.985843982,-0.095579343,0.030769577500625298,0.1342148078748813,0.035718109,-0.198008719,2.8745249830759487,4.524125908613205,-81.12938858,-9.731329832,-18.75,9.690655773125807,1.9575670436748023,-0.298100981,-56.13512714,-45.2493111,-44.59221916,2.6457879543304443,1.7494285106658936,2.357940196990967,9.970999717712402,12.04016113,178.00149536132812,156.29998779296875,-86.9103616,40.4217255,-0.0187953,-0.001961759,-0.003606348,-0.026381759,0.006030568,0.044959869,0.002126218,-0.013720569,-0.004217195,Drive
68,9.723722633806247,1.9570211067940424,-0.254823995,-0.986291965,-0.096160473,0.026069715420163952,0.13152099335656584,0.026654246344583705,-0.197828677,2.8791047994372914,5.630299906730652,-81.35167259,-7.517151837,-17.44444444,9.723722633806247,1.9570211067940424,-0.254823995,-55.02944103,-45.47171703,-42.37743114,2.6103994846343994,1.4702720642089844,2.367978334,9.965000153,12.38698673248291,177.9982452392578,156.29998779296875,-86.9103577,40.4216194,-0.021041612,0.011539379438245217,0.002139448,0.004182353,0.008020812,0.004345378,-1.20E-04,-2.19E-04,0.001528601,Drive
69,9.792649917,1.9245873186194782,-0.123404601,-0.986730711,-0.097083198,0.019888837161718062,0.12860223014377853,0.014564476943421133,-0.197999196,2.8838378318305153,9.919453761726619,-80.47071068,-9.372161815,-18.125,9.792649917,1.9245873186194782,-0.123404601,-50.74016508,-44.59075513,-44.23244118,2.5936145782470703,1.693074107170105,2.3780202865600586,10.001999855041504,12.322412490844727,178.0003662109375,156.29998779296875,-86.9103575,40.4215126,-0.021741418,4.7296193683773135E-4,0.002115726,0.019666014365779545,-0.0363656,0.018916309747881103,-8.20E-04,-0.011285848,0.001504879,Drive
70,9.785709566282994,1.5547161866160273,0.1947972524017706,-0.988268369,-0.088386547,0.006962902,0.12407787071848378,-0.008314796,-0.177384976,2.891116223288971,7.974041805267334,-81.76500832,-12.33639574,-20.33333333,9.785709566282994,1.5547161866160273,0.1947972524017706,-52.68630898,-45.88493122,-47.19667503,2.4978721141815186,1.3285330533981323,2.387963056564331,9.991000175476074,12.88368034362793,177.9979705810547,156.29998779296875,-86.9103522,40.4213975,-0.035369836,-5.35E-04,-0.002510108,0.024775116,-0.195422795,0.11358769717219386,-0.014448317,-0.012294042,-0.003120955,Drive
71,9.880439263123732,1.2709569529845164,0.18173660566921732,-0.990434242,-0.073757168,-0.002394591,0.11654266939290518,-0.022183311,-0.146062117,2.905704505235246,8.213283848762511,-80.15485229,-12.94102773,-16.5,9.880439263123732,1.2709569529845164,0.18173660566921732,-52.44584717,-44.27526333,-47.80094093,2.462949038,1.2932130098342896,2.397961378097534,9.991000175476074,12.928742408752441,178.9944610595703,156.29998779296875,-86.9103437,40.421279,-0.039094224,0.012938990454908315,0.002922281,0.042983694,-0.174362015,-0.044696103,-0.018172706,0.001180181,0.002311434,Drive
72,9.855121769951385,1.2809557833717864,-0.013090828,-0.99118964,-0.069162035,-5.87E-04,0.1129520515938407,-0.016949044,-0.137404421,2.913493024492727,9.693875780105591,-81.35935829,-11.71712379,-19.66666667,9.855121769951385,1.2809557833717864,-0.013090828,-50.96598694,-45.47952507,-46.57740288,2.4611337184906006,1.3188252449035645,2.4079325199127197,9.991000175476074,12.308634757995605,179.99481201171875,156.29998779296875,-86.9103413,40.4211631,-0.022453085,0.009748351,-8.85E-04,-0.01550593,-0.088401712,-0.1744401,-0.001531566,-0.002010458,-0.001495983,Drive
73,9.836388634,1.286998829216633,-0.044226565,-0.991570993,-0.066690224,0.004405796,0.11095284591022048,-0.006118763,-0.133627919,2.9183121167340325,9.648857831954956,-81.46013046,-11.7934958,-19.875,9.836388634,1.286998829216633,-0.044226565,-51.01137093,-45.57993111,-46.65292114,2.4492995738983154,1.3038405179977417,2.4180047512054443,10.001999855041504,11.911303520202637,179.99996948242188,156.29998779296875,-86.9103411,40.4210555,-0.022227723,0.016177074007748725,-0.002261024,-0.0267981,-0.037580282,-0.106789142,-0.001306205,0.004418264,-0.002871872,Drive
74,9.895973919,1.2099028912924448,-0.056248756,-0.991960885,-0.064061445,0.009895583,0.10866613505245412,0.005755449,-0.129604273,2.9237398823488108,9.351909732818603,-82.16821854,-10.73221777,-23.11111111,9.895973919,1.2099028912924448,-0.056248756,-51.30819702,-46.28838512,-45.59188725,2.4443652629852295,1.248679280281067,2.427981138,9.991000175476074,11.422745704650879,179.99998474121094,156.29998779296875,-86.9103382,40.4209556,-0.024196668,0.015987296,0.001759892,0.014186896166755157,-0.074862334,0.003101015,-0.00327515,0.004228486,0.001149045,Drive
75,9.888853573,1.1507444228565555,-0.159799316,-0.992535121,-0.059321345,0.012562405926963458,0.10579868592321873,0.012474050987153672,-0.120707582,2.9299571903852315,11.507039766311646,-79.32781433,-8.248663855,-26.88888889,9.888853573,1.1507444228565555,-0.159799316,-49.15184692,-43.44785934,-43.10808929,2.4742610454559326,1.3479243516921997,2.437969207763672,9.93500042,10.876731872558594,179.99998474121094,156.29998779296875,-86.9103342,40.4208598,-0.021038989,0.015811546536637112,9.162708884105086E-4,-0.012471557,-0.051697543,-0.031107327,-1.17E-04,0.004052737,3.0542377386994375E-4,Drive
76,9.907827738,1.1636610112143952,-0.316535008,-0.992397819,-0.057462652,0.017986722245306067,0.10731588593385752,0.023532953456912226,-0.118191202,2.9275463483865978,10.760277795791627,-79.80178444,-9.997167797,-26.75,9.907827738,1.1636610112143952,-0.316535008,-49.89958496,-43.92158504,-44.8579351,2.489142894744873,1.306330680847168,2.447929620742798,9.93500042,10.413233757019043,180,156.29998779296875,-86.9103336,40.4207685,-0.005159584,0.015050268479966496,8.821701823091767E-4,-0.034072107,-0.017231075,-0.082526967,0.015761935,0.003291459,2.7132298440211316E-4,Drive
77,9.944716051,0.8945323538433001,-0.0866498,-0.992305873,-0.055285111,0.016345148996531386,0.1095405622448736,0.020458223967297563,-0.113546603,2.922869839714569,10.26922776222229,-79.47189613,-11.00415576,-23.44444444,9.944716051,0.8945323538433001,-0.0866498,-50.39063496,-43.59194103,-45.86431305,2.5204038619995117,1.2317466735839844,2.458049774169922,9.93500042,9.649450302124023,179.00514221191406,156.29998779296875,-86.9103329,40.4206796,-0.022951251,0.008230129,-6.67E-05,-0.016084384,-0.241614787,0.11713902377387853,-0.002029733,-0.003528681,-6.78E-04,Drive
78,10.039165111688467,0.34233469327983373,-0.102839607,-0.99358457,-0.034866052,0.010567470272840227,0.10663181065934375,0.013591262303943773,-0.071607568,2.9282802192910204,9.282857875823975,-79.81569237,-10.73441381,-32.75,10.039165111688467,0.34233469327983373,-0.102839607,-51.37761505,-43.93549301,-45.59493706,2.560119152069092,1.2233151197433472,2.467931032180786,9.93500042,8.957791328430176,179.0017547607422,156.29998779296875,-86.9103258,40.4206001,-0.026284224,0.010199073666494194,3.7214239647847066E-4,0.029532626994605203,-0.375531791,0.035084916,-0.005362705,-0.001559736,-2.39E-04,Drive
79,10.09586471,0.2878211369416993,-0.14440859,-0.994363815,-0.017320333,0.008111549,0.10425581443078309,0.012526283836335812,-0.03614368,2.9328850912816318,9.393389845,-79.34367485,-10.1452758,-32.77777778,10.09586471,0.2878211369416993,-0.14440859,-51.26622894,-43.463475,-45.00543297,2.626660108566284,1.2425779104232788,2.4779980182647705,9.93500042,7.712538719177246,179.99746704101562,156.29998779296875,-86.9103219,40.4205287,-0.021350001,0.013235518289503903,9.296146318660054E-4,0.045505292207291985,-0.073058342,-0.018929891,-4.28E-04,0.001476708,3.187674215262376E-4,Drive
80,10.056632828943938,0.23051826066215458,-0.155640917,-0.994565609,-0.012718642,0.009254422,0.10290857816784127,0.015796366210990738,-0.027206991,2.9355992622745846,8.942111787796021,-79.29182419,-10.67512174,-37.375,10.056632828943938,0.23051826066215458,-0.155640917,-51.7181171,-43.41174717,-45.53430313,2.713000535964966,1.2095040082931519,2.487936019897461,9.93500042,6.227159023284912,179.99998474121094,156.29998779296875,-86.91032,40.4204728,-0.017957723,0.014303018398316197,6.093646267438036E-4,-0.009675869,-0.0468098,0.001433364,0.002963795,0.002544208,-1.48E-06,Drive
81,10.060843467712402,0.19758500649765567,-0.175796962,-0.994723386,-0.009707939,0.009978404,0.10163930304420804,0.017882799,-0.021342925,2.9381329758653365,9.206973829269408,-79.98563866,-10.84555579,-36.22222222,10.060843467712402,0.19758500649765567,-0.175796962,-51.45301102,-44.1055611,-45.70632301,2.8192429542541504,1.2010828256607056,2.4979701042175293,9.93500042,4.619278907775879,179.0093994140625,156.29998779296875,-86.9103184,40.4204326,-0.019452223,0.012891545991788537,4.0772572629949424E-4,-0.010592646,-0.0146889,0.005068632,0.001469295,0.001132736,-2.03E-04,Drive
82,10.03307631409284,0.4043376619376025,-0.160510776,-0.994835453,-0.012839853,0.009979598,0.1001239909002414,0.017296745,-0.027549233,2.9412187544199138,8.453257861,-79.18422012,-8.008933845,-41.125,10.03307631409284,0.4043376619376025,-0.160510776,-52.206483,-43.3040213,-42.86787125,2.9401116371154785,1.2814054489135742,2.5080668926239014,9.93500042,3.131176710128784,179.0129395,156.29998779296875,-86.9103155,40.4204047,-0.020792301,0.013920269333958948,5.40364912572281E-4,-0.02678243,0.12468234893794243,0.013744487498815242,1.2921763957890036E-4,0.00216146,-7.05E-05,Drive
83,9.817794846099558,1.330516832546123,-0.15116599,-0.994187364,-0.04185076,0.012225027141857494,0.097585571,0.016225168779854058,-0.08572111,2.946592525,4.685653879642486,-80.20816658,-2.464277956,-43.55555556,9.817794846099558,1.330516832546123,-0.15116599,-55.97408703,-44.32833302,-37.3230933,3.0680956840515137,1.2731456756591797,2.517864227294922,9.93500042,1.563690185546875,179.02781677246094,156.29998779296875,-86.9103139,40.4203943,-0.020365529,0.011242851452196686,0.001783615,-0.108131205,0.47838153306720327,0.009952054,5.559895788907137E-4,-5.16E-04,0.001172767,Drive
84,9.677698561288778,2.1401794801637966,-0.129209519,-0.991972617,-0.081483703,0.014831532814621348,0.094559384,0.014233275994803141,-0.165247138,2.9526935503320786,2.3042139503359795,-83.28183426,0.003415998,-26.55555556,9.677698561288778,2.1401794801637966,-0.129209519,-58.35589287,-47.40200096,-34.85527733,3.1970412731170654,1.3314653635025024,1.2716765403747559,9.93500042,0.6663654446601868,179.03952026367188,150.1999969482422,-86.9103138,40.4203915,-0.021219529,0.012191740447854243,0.003408587,-0.090931902,0.5108697865773173,0.009864239,-2.98E-04,4.329305702766168E-4,0.00279774,Drive
85,9.452863286,3.5093560751202038,-0.103364711,-0.984803447,-0.144286194,0.019710886,0.093118226,0.012464480275667987,-0.292073906,2.954861770555811,7.321097866371274,-99.25492821,8.497055819034577,-17,9.452863286,3.5093560751202038,-0.103364711,-53.3380328,-63.37497261,-26.36322344,3.3255090713500977,1.1596550941467285,1.2816553115844727,9.93500042,0.6696656346321106,178.99949645996094,150.1999969482422,-86.9103143,40.42039,-0.020685779,0.011646129299425384,0.006101059,-0.098478169,0.6359194690741382,0.015745931675711883,2.3573955511945545E-4,-1.13E-04,0.005490212,Drive
86,9.419797943188595,3.409105034974905,-0.071865208,-0.980544208,-0.172457498,0.019862874528592072,0.091595766,0.007831826,-0.348881334,2.9566890290639933,13.685959749221801,-73.18987305,-0.456645992,-16.77777778,9.419797943188595,3.409105034974905,-0.071865208,-46.97439125,-37.30979519,-35.31680325,3.444917917251587,1.2342203855514526,1.2916276454925537,9.93500042,1.8586831092834473,178.98330688476562,150.1999969482422,-86.9103151,40.4203795,-0.019618279,0.005110657,7.161146484188808E-4,-0.023723575,-0.024282854,0.0021675,0.00130324,-0.006648153,1.0526740078100012E-4,Drive
87,9.552792678758935,2.9345646622111494,-0.017043053,-0.983453993,-0.15656578,0.014790015195686262,0.089774226,0.001030731,-0.315839858,2.9597009709737834,8.071275811195374,-76.91782654,-10.09074182,-21.875,9.552792678758935,2.9345646622111494,-0.017043053,-52.58870895,-41.0376273,-44.95077732,3.577479839324951,1.4996665716171265,1.3016045093536377,9.93500042,1.6193357706069946,179.0057373046875,150.1999969482422,-86.9103145,40.4203629,-0.018384723,0.003663601,-2.33E-04,0.040383820394867834,-0.171447884,-0.012165336,0.002536795,-0.008095209,-8.44E-04,Drive
88,9.651781165484087,1.9964504103058751,0.07399746,-0.987167176,-0.131785494,0.007513434,0.089216187,-0.008991896,-0.264638463,2.9601544801471302,10.518717818260193,-80.62284454,-12.02273377,-26,9.651781165484087,1.9964504103058751,0.07399746,-50.14090096,-44.74276718,-46.88276878,3.7038211822509766,1.6592166423797607,1.311633825302124,9.994999885559082,2.0691230297088623,178.9899902,150.1999969482422,-86.9103154,40.4203464,-0.016866501,0.004600629,-0.008167858,0.085938157,-0.594250048,-0.009011799,0.004055018,-0.007158181,-0.008778705,Drive
89,9.505882865,2.7284566731128876,0.067434621,-0.987801109,-0.127642296,0.00816823,0.088496073,-0.006667337,-0.256431777,2.962055218,3.904975945353508,-82.05219612,-8.931253815,-17,9.505882865,2.7284566731128876,0.067434621,-56.75476475,-46.17211937,-43.79128887,3.699105739593506,1.2233151197433472,1.3215407133102417,9.98900032,5.212396144866943,178.98638916015625,150.1999969482422,-86.9103131,40.4202951,-0.01847813,0.02183779,-2.70E-04,-0.065985891,0.2177802072121547,0.0040582,0.002443389,0.010078979788186889,-8.81E-04,Drive
90,9.487997730958808,2.9494849501304254,0.012309678895478092,-0.986072762,-0.139848346,0.012077207622814525,0.08918858,-0.001174892,-0.281665369,2.9610192590546838,14.786887686252594,-80.3870182,-18.19178564,-16.77777778,9.487997730958808,2.9494849501304254,0.012309678895478092,-45.87260902,-44.50706329,-53.05096684,3.7117648124694824,1.225887417793274,1.3316354751586914,9.98900032,6.0884294509887695,178.99685668945312,150.1999969482422,-86.9103178,40.4202287,-0.019713168,0.009938129,-0.006981747,-0.034896665,0.19401549367071355,0.001178272,0.001208351,-0.001820681,-0.007592594,Drive
91,9.625407894838203,2.7340379941810684,0.064379708,-0.986037275,-0.140483176,0.009766572,0.08885361,-0.005941024,-0.282523545,2.961009014000013,18.274623680114747,-78.68597237,-11.0747938,-19.22222222,9.625407894838203,2.7340379941810684,0.064379708,-42.38523914,-42.80577312,-45.93470692,3.6429765224456787,1.1981652975082397,1.3416612148284912,10,7.251980304718018,178.99671936035156,150.1999969482422,-86.9103102,40.4201575,-0.022429362,0.012369657095263992,0.005816393,0.075291726,-0.038346927,0.007649684,-0.001507844,6.108472318144388E-4,0.005205545,Drive
92,9.592399106,2.5298320645267522,0.07995919,-0.987202595,-0.132995464,0.007941547,0.087566033,-0.007893469,-0.267148123,2.9635981170876513,21.619985599517822,-78.68219093,-8.497543817,-27.625,9.592399106,2.5298320645267522,0.07995919,-39.04073112,-42.8026012,-43.35648125,3.617495298,1.3918691873550415,1.3516061305999756,10.03600025177002,8.092533111572266,178.99710083007812,150.1999969482422,-86.9103106,40.4200788,-0.022749612,0.007008435,-0.002189858,-4.77E-04,-0.095770984,0.004226964,-0.001828094,-0.004750375,-0.002800705,Drive
93,9.685150963,2.059909690458041,0.095433933,-0.988523936,-0.124431628,0.00556769,0.085406076,-0.01057903,-0.249542867,2.9678970586906357,19.783031578063966,-77.24124847,-10.54848579,-20.88888889,9.685150963,2.059909690458041,0.095433933,-40.87744156,-41.36129314,-45.40852116,3.6297285556793213,1.453444242477417,1.361632227897644,10.152000427246094,8.911802291870117,178.9973602294922,150.1999969482422,-86.9103089,40.4199901,-0.024528779,0.010910740330164294,-0.001632385,0.050532239,-0.395894648,-0.005220582,-0.003607261,-8.48E-04,-0.002243233,Drive
94,9.581796933146355,2.1455749522135097,0.010756087,-0.989429678,-0.117083106,0.006002258,0.085297263,-0.008323797,-0.234871538,2.9686133282855875,20.037767601013183,-74.3962088,-19.4521676,-20.5,9.581796933146355,2.1455749522135097,0.010756087,-40.62221737,-38.51625332,-54.31195892,3.351849317550659,1.132077693939209,1.3715842962265015,10.220999717712402,9.899070739746094,178.9984893798828,150.1999969482422,-86.9103079,40.4198959,-0.01674789,0.012689907135988939,-0.003909719,-0.050567979,-0.165877869,-0.07318603,0.004173629,9.310972397622553E-4,-0.004520566,Drive
95,9.707036814643342,2.206237644825167,-0.132941044,-0.989289107,-0.114706531,0.010714015100621482,0.089598329,6.59117590507732E-4,-0.230927231,2.961026978724211,17.42123374938965,-74.03899277,-21.67403152,-19.66666667,9.707036814643342,2.206237644825167,-0.132941044,-43.23911709,-38.15903732,-56.53418911,3.2164688110351562,1.1374093294143677,1.381593108177185,10.25100040435791,10.272021293640137,178.99948120117188,150.1999969482422,-86.9103095,40.4197965,-0.003985334,0.011646129281906574,0.006931337,0.10933226983524064,-0.045113934,-0.121889747,0.016936185,-1.13E-04,0.00632049,Drive
96,9.643775097374776,2.194543598925026,0.3695023438974636,-0.989274148,-0.112366783,2.2252058177120768E-4,0.093106631,-0.021009666,-0.224233335,2.951553938480524,18.84607165336609,-74.0909642,-22.54742958,-17,9.643775097374776,2.194543598925026,0.3695023438974636,-41.81342522,-38.21100925,-57.40673298,3.121799945831299,1.1704699993133545,1.3916871547698975,10.32699966430664,10.739402770996094,178.0042724609375,150.1999969482422,-86.9103055,40.4196949,-0.029015245,-0.003500625,-0.00444039,0.044863214859595664,0.004327093,0.16241357600889528,-0.008093726,-0.015259434,-0.005051237,Drive
97,9.709327984782098,2.1766758404889153,0.5435830940067479,-0.989432513,-0.112577816,-0.012272138,0.090528371,-0.045812783,-0.22238439,2.953994415338757,20.204785575866698,-72.16800056,-22.89976555,-14.22222222,9.709327984782098,2.1766758404889153,0.5435830940067479,-40.45507732,-36.28780119,-57.76016701,3.010655641555786,1.1704699993133545,1.40170157,10.29800033569336,11.218757629394531,178.99343872070312,150.1999969482422,-86.9103014,40.4195929,-0.047029308,0.008906212,6.68670198862052E-4,0.040151439,-0.012080688,0.10030302535561682,-0.02610779,-0.002852597,5.782308346293505E-5,Drive
98,9.643380193,2.126534012914861,0.21806919304382744,-0.990059287,-0.110314232,-0.007250078,0.086825167,-0.034343405,-0.218920084,2.9628599014097046,24.91142349243164,-70.90432457,-20.90335755,-18.33333333,9.643380193,2.126534012914861,0.21806919304382744,-35.74819534,-35.02424728,-55.76339306,2.8992831707000732,1.2296746969223022,1.4116605520248413,10.251999855041504,12.204242706298828,179.9937286376953,150.1999969482422,-86.9102965,40.4194868,-0.02901228,0.028939630488697802,-0.003957163,-0.017140009,-0.024250378,-0.114012538,-0.008090761,0.017180820456841616,-0.004568011,Drive
99,9.873367064207503,1.6587836264985278,-0.061022785,-0.990340906,-0.106636353,0.003964973,0.088489775,-0.011273353,-0.213536593,2.9621508329817394,23.081301498413087,-71.38732277,-14.94072971,-20.375,9.873367064207503,1.6587836264985278,-0.061022785,-37.57843941,-35.50748957,-49.80027683,2.751889467,1.1788554191589355,1.4216774702072144,10.234000205993652,13.216349601745605,179.00511169433594,150.1999969482422,-86.9102842,40.4193635,-0.016356473,0.019925185417060207,0.001273587,0.20656469493236357,-0.437534005,-0.169978412,0.004565045,0.008166376,6.627396378639037E-4,Drive
100,9.892296919455895,1.1403122847774425,-0.135887591,-0.991210071,-0.096237782,0.010180744,0.090104911,0.002889142,-0.193831498,2.960548382360958,24.792839574813843,-71.92314667,-8.416413858,-16.55555556,9.892296919455895,1.1403122847774425,-0.135887591,-35.86714523,-36.04343529,-43.27583893,2.6413767337799072,1.1926860809326172,1.4316269159317017,10.152999877929688,12.966452598571777,179.0002899169922,150.1999969482422,-86.9102719,40.4192399,-0.020187612,0.028832880233626956,0.002898559,0.1659039710331889,-0.767290669,-0.110488998,7.339062941152132E-4,0.017074070525021086,0.002287712,Drive
101,9.905725229,0.9027562262309552,-0.242624666,-0.992093453,-0.085607814,0.014434990192790634,0.090542088,0.013344606041040236,-0.173344621,2.960736351105773,19.71861572265625,-73.17035225,-5.062145884,-14.375,9.905725229,0.9027562262309552,-0.242624666,-40.94088123,-37.29015327,-39.92181526,2.5688841342926025,1.1289818286895752,1.4416483640670776,10.116999626159668,12.470939636230469,179.00070190429688,150.1999969482422,-86.9102738,40.4191228,-0.014601029,0.006569573,-0.004158802,0.14215276310744795,-0.80469957,-0.103187434,0.00632049,-0.005189237,-0.004769649,Drive
102,9.961535556,0.7423383775528846,-0.158922339,-0.992981776,-0.074124707,0.012591986718036017,0.091221107,0.011614486661025332,-0.150070704,2.9592426749109064,19.203897562026977,-73.53549843,-11.08235777,-15.22222222,9.961535556,0.7423383775528846,-0.158922339,-41.45523338,-37.65529915,-45.94202717,2.5124104022979736,1.059999942779541,1.4516249895095825,10.107000350952148,11.704902648925781,179.00096130371094,150.1999969482422,-86.9102701,40.4190137,-0.018420307,0.01325924,7.398371828846561E-4,0.17042434562757178,-0.735193433,-0.063971541,0.002501212,0.00150043,1.2898932491402023E-4,Drive
103,10.060820273982669,0.5262496513721434,-0.227794392,-0.993530161,-0.064435497,0.015356938228083468,0.092173554,0.018801425936297307,-0.131246849,2.9578048326436757,15.068341674804687,-73.95042068,-15.0328397,-13.625,10.060820273982669,0.5262496513721434,-0.227794392,-45.59127728,-38.07046535,-49.89287514,2.4956400394439697,1.059999942779541,1.4616938829421997,10.020999908447266,10.875985145568848,178.00660705566406,150.1999969482422,-86.9102734,40.4189139,-0.019001501,0.015536574016153378,-0.001952636,0.20206520858320218,-0.76631406,-0.033803753,0.001920017,0.003777764,-0.002563483,Drive
104,10.02302008693658,0.3555403437478992,-0.215101396,-0.994086966,-0.05460572,0.015461618456846246,0.092536245,0.020765100068484362,-0.111659687,2.9571118423571954,10.21749981403351,-76.11018692,-19.60722961,-16.77777778,10.02302008693658,0.3555403437478992,-0.215101396,-50.44260704,-40.23035305,-54.46677685,2.5078799724578857,1.1067520380020142,1.471639872,10.005999565124512,9.920102119,178.00343322753906,150.1999969482422,-86.9102723,40.418828,-0.024610096,0.015576605202603297,0.003712072,0.13037594465109018,-0.761671911,-0.005089968,-0.003688578,0.003817795,0.003101225,Drive
105,10.023220423355843,0.024767455938769486,-0.203883591,-0.994617725,-0.044311138,0.016927782880160416,0.092054637,0.025624954259221993,-0.091389511,2.9581780827161177,7.671847920417786,-76.32441841,-19.04761567,-26.375,10.023220423355843,0.024767455938769486,-0.203883591,-52.98874706,-40.44458534,-53.90911488,2.529252767562866,1.059999942779541,1.4816383123397827,9.93500042,8.723016738891602,178.99932861328125,150.1999969482422,-86.9102735,40.4187482,-0.024564363,0.024835686,7.16114646723512E-4,0.09011714,-0.885837656,0.050723515089275764,-0.003642844,0.013076875738582565,1.0526752736853454E-4,Drive
106,10.129349680780207,-0.304634781,-0.348512875,-0.995283822,-0.024914464,0.018418909168069802,0.091783084,0.032143136649166494,-0.053000897,2.9585457125913748,7.237283837795258,-78.17345001,-11.71614778,-32.44444444,10.129349680780207,-0.304634781,-0.348512875,-53.42282295,-42.29337326,-46.57618301,2.585733413696289,1.1067520380020142,1.491632342338562,9.93500042,7.280340194702148,179.00379943847656,150.1999969482422,-86.9102761,40.418684,-0.020685779,0.002441906,-0.014987998,0.1593453305438884,-0.833745361,-0.027990304,2.3573962575982062E-4,-0.009316903,-0.015598845,Drive
107,10.278927564620972,-0.323264012,-0.176720882,-0.995611405,-0.012761914,0.009296197,0.091983266,0.016173221830965825,-0.027125171,2.957572159257907,8.271477851867676,-77.77817055,-12.60760177,-38.33333333,10.278927564620972,-0.323264012,-0.176720882,-52.3883849,-41.89821529,-47.46727089,2.6599667072296143,1.0737783908843994,1.501599907875061,9.93500042,5.456149101257324,179.00625610351562,150.1999969482422,-86.9102779,40.4186352,-0.020756946,-0.002468594,0.011652059701623993,0.23244612425276376,-0.593514473,-0.016319819,1.6457288304470407E-4,-0.014227404,0.011041213,Drive
108,10.119328258107009,0.015901817,-0.045664,-0.995727827,9.935263862414625E-5,0.00273876,0.092240195,0.005473052,-3.07E-04,2.956842316007151,8.071397843,-78.98328636,-11.10077976,-41.625,10.119328258107009,0.015901817,-0.045664,-52.588587,-43.1030872,-45.9604493,2.759960651397705,1.1704699993133545,1.511654019355774,9.93500042,3.681452989578247,179.01100158691406,150.1999969482422,-86.9102782,40.4186036,-0.02027064,0.002287712,0.012197670897523176,-0.021180968,0.0051329,0.010977982245023969,6.508784616158064E-4,-0.009471098,0.011586823686053163,Drive
109,9.927196836008608,0.7581124244963081,-0.018576319,-0.995577515,-0.019960732,0.002853127,0.091224156,0.002049583,-0.0402803,2.958886917354991,8.983347854614259,-79.76067039,-10.54848578,-46.11111111,9.927196836008608,0.7581124244963081,-0.018576319,-51.67675873,-43.88059307,-45.40937519,2.858243227005005,1.059999942779541,1.5216039419174194,9.93500042,1.8943654298782349,179.0179901123047,150.1999969482422,-86.9102822,40.4185884,-0.021195806,0.012737352,0.002530865,-0.095938164,0.34771129763820796,0.0021667,-2.74E-04,9.785417435708844E-4,0.001920017,Drive
110,9.790204816651576,1.4203028592091163,-0.002529307,-0.994485041,-0.052605319,0.005487626,0.089934095,0.001466271,-0.105827123,2.961291482147661,9.643977785110474,-78.9320462,-10.49309781,-52.125,9.790204816651576,1.4203028592091163,-0.002529307,-51.01551884,-43.05196896,-45.35337696,2.9633610248565674,1.2041594982147217,1.5315512418746948,9.93500042,0.6703855395317078,179.04527282714844,150.1999969482422,-86.9102873,40.4185892,-0.021290695,0.012179879399323926,9.05892408217837E-4,-0.07897427,0.3651876449584961,0.010502423693254156,-3.69E-04,4.2106948331794116E-4,2.950451238469664E-4,Drive
111,9.740347529,1.705905407377817,-0.003162359,-0.992897094,-0.078559554,0.007328585,0.088978328,5.815971920898077E-4,-0.157965445,2.9628863632678986,9.513315830230713,-79.14725433,-10.64035181,-54.22222222,9.740347529,1.705905407377817,-0.003162359,-51.14691307,-43.26717728,-45.500387,45,1.1524755954742432,1.5415562391281128,9.93500042,0.6484135389328003,179.01390075683594,150.1999969482422,-86.9102937,40.418594,-0.020909771,0.012299174738403123,8.457884855138568E-4,-0.026024626,0.15059300454763266,0.00327867,1.1747024613074385E-5,5.403648784312492E-4,2.3494121202160246E-4,Drive
112,9.772450298938937,1.7515200364936903,0.004820492,-0.992329,-0.08617515,0.00777821,0.088294158,2.2311666015791595E-4,-0.173267525,2.964125985080756,8.005273809432984,-78.66999031,-11.27548377,-43.125,9.772450298938937,1.7515200364936903,0.004820492,-52.6550771,-42.79003521,-46.13503117,45,1.2640016078948975,1.476775884628296,9.93500042,0.16303077340126038,172.50753784179688,145.89999389648438,-86.9102933,40.4185983,-0.02112464,0.011895212706503937,6.449479452623687E-4,0.009031685,0.04268938,0.007070141,-2.03E-04,1.3640279727942736E-4,3.410066880321908E-5,Drive
113,9.628671877592513,2.6255362600956147,0.012184810300258178,-0.990066098,-0.108588558,0.009221007,0.08778881,-8.31E-04,-0.218411209,2.9646149445505974,7.8611918592453005,-78.54323273,-10.83664972,-23.11111111,9.628671877592513,2.6255362600956147,0.012184810300258178,-52.79928101,-42.66315525,-45.69534313,0,0.1702938675880432,1.4868485927581787,10.029999732971191,0.023683086037635803,0,145.89999389648438,-86.9102937,40.4186,-0.020875556,0.010863296,0.001285448,-0.077229629,0.47095176664370936,0.004163049,4.59617772365658E-5,-8.96E-04,6.746007027827854E-4,Drive
114,9.457434061661507,3.230955246582772,-0.09455715,-0.985231428,-0.145715607,0.013552322522601455,0.088360654,9.86230642013749E-4,-0.293759297,2.962872889435407,8.437275815010072,-78.54091431,-10.79846378,-27.66666667,9.457434061661507,3.230955246582772,-0.09455715,-52.22283092,-42.66071514,-45.65886505,3.403433322906494,1.059999942779541,1.4967631101608276,10.027000427246094,0.5974816679954529,178.9954833984375,145.89999389648438,-86.9102893,40.4185933,0.004115806,0.012938990506334501,2.653923991036791E-4,-0.085954546,0.34391886285207807,-0.085293757,0.025037325,0.001180181,-3.45E-04,Drive
115,9.488303927,2.8270394137272468,-0.736727658,-0.980222579,-0.148190281,0.034803477,0.12381651201873149,0.033241043694642855,-0.304365549,2.895329593,7.543991899490356,-77.64226227,-12.07153378,-18.75,9.488303927,2.8270394137272468,-0.736727658,-53.11623684,-41.76230728,-46.93120319,3.5061323642730713,1.0685036182403564,1.5068100690841675,10.045999526977539,1.8946422338485718,177.9736785888672,145.89999389648438,-86.9102865,40.4185798,0.13015198009540735,0.042247797823646696,-0.008523691,0.001279535,-0.148658164,-0.414408924,0.15107349892264432,0.030488988158555285,-0.009134539,Drive
116,9.547327504574675,2.629581405121146,-1.372945875,-0.9595129,-0.128308535,0.07740675,0.23466618822037594,0.092411084,-0.287534813,2.6752330909654933,8.346873803138733,-76.0901786,-16.07118167,-19.11111111,9.547327504574675,2.629581405121146,-1.372945875,-52.31372089,-40.21010124,-50.93097313,3.5985121726989746,1.145862102508545,1.5167603492736816,10.045999526977539,3.320422649383545,168.91700744628906,145.89999389648438,-86.9102821,40.4185531,0.2711687384589205,0.056125298,0.004903087,0.024850428683086505,-0.198646089,-0.489894008,0.2920902575393325,0.044366488823196985,0.00429224,Drive
117,9.796468540302758,1.9986864258942094,-1.519038737,-0.916662799,-0.093897566,0.10199838645249895,0.37230161526828137,0.12175955847629065,-0.251546549,2.3854129129243127,6.484543867111206,-75.2058004,-21.23873568,-22.75,9.796468540302758,1.9986864258942094,-1.519038737,-54.17568504,-39.32596729,-56.09767307,3.6883490085601807,1.0855873823165894,1.873389482498169,10.045999526977539,4.387360572814941,153.02259826660156,145.39999389648438,-86.9102663,40.4185162,0.29044304455368264,0.071936161,0.002625754,0.1885049319961696,-0.495338933,-0.34178297,0.31136456450212346,0.060177350923129654,0.002014907,Drive
118,9.594449265,2.8985735953432843,-1.823255351,-0.849228847,-0.087399354,0.1394181903451681,0.4999472900078847,0.1565319418620605,-0.292893117,2.100538199910751,5.788411884307862,-69.83096825,-25.30523952,-13.88888889,9.594449265,2.8985735953432843,-1.823255351,-54.87145073,-33.95089144,-60.16588482,3.770087242126465,1.0855873823165894,1.8833818435668945,9.951000213623047,5.1552605628967285,131.21788024902344,145.39999389648438,-86.9102261,40.4184845,0.2815888377909477,0.084989999,0.015294675602770159,-8.39E-04,-0.032252018,-0.306483327,0.3025103575335099,0.073231189,0.014683828547556633,Drive
119,9.416030096776277,3.1514316322734053,-1.94165942,-0.773752557,-0.075007769,0.17084805435926012,0.6044352488610351,0.18474667960578955,-0.328891144,1.846016949820287,5.4314398765563965,-64.0042487,-27.12011145,-14.375,9.416030096776277,3.1514316322734053,-1.94165942,-55.22878887,-28.12441547,-61.98014671,3.8398797512054443,1.145862102508545,1.893357276916504,9.93500042,5.845181465148926,113.17153930664062,145.39999389648438,-86.9101672,40.4184575,0.2328217634298269,0.063621522,-0.013884914,-0.03363001,-0.129391751,-0.175792517,0.2537432825102389,0.051862711,-0.014495761,Drive
120,9.448260594340203,2.9833706999288023,-0.920658841,-0.721484895,-0.074527119,0.15659986277228422,0.6701336809732381,0.13350458761442055,-0.322725575,1.6664356537235594,4.318189918994904,-58.51815266,-27.62397146,-20.44444444,9.448260594340203,2.9833706999288023,-0.920658841,-56.34118477,-22.63819759,-62.48534878,3.8503594398498535,1.0907795429229736,1.9033071994781494,9.93500042,7.196396827697754,99.08551025390625,145.39999389648438,-86.9100825,40.4184421,0.088080616,0.026045519017695803,-0.005012802,0.014946604237973112,-0.20100429,0.3468955847823504,0.10900213504300534,0.014286709153681125,-0.00562365,Drive
121,9.536173598,2.4262263335070564,-0.419591903,-0.709580721,-0.081250216,0.12429043773597884,0.6887439853936723,0.067381689,-0.290592599,1.6105272399569022,4.4705679225921635,-56.40279495,-28.51798758,-28.25,9.536173598,2.4262263335070564,-0.419591903,-56.18905087,-20.52283962,-63.37814468,3.800614833831787,1.2434227466583252,1.9133278131484985,9.93500042,8.601517677307129,94.03884125,145.39999389648438,-86.9099777,40.4184324,0.011018973,0.020174268572093937,-0.009081164,0.077305766,-0.409306405,0.2184887085724803,0.031940492,0.008415459,-0.009692011,Drive
122,9.584669654185955,2.559097933,-0.310672934,-0.714162469,-0.078226207,0.10772008564576362,0.6871960695507457,0.048013646,-0.262806784,1.6156226847935649,5.785117893218994,-51.90050697,-29.13262335,-17.88888889,9.584669654185955,2.559097933,-0.310672934,-54.87547688,-16.02055172,-63.99326885,3.583118438720703,1.0685036182403564,1.9233756065368652,9.93500042,9.571232795715332,92.01412963867188,145.39999389648438,-86.9098589,40.4184288,-0.001897778,0.012286629371268187,-6.12E-04,0.058108977901125416,-0.014557084,0.14603003179564059,0.019023740863047756,5.278194965161744E-4,-0.001223177,Drive
123,9.600181588848818,2.7283376142816635,-0.127356823,-0.71920102,-0.090183065,0.10234242193039181,0.6812648368113249,0.025271110770120783,-0.272544979,1.6284186527567002,6.045099859237671,-51.52767509,-28.86214947,-14.77777778,9.600181588848818,2.7283376142816635,-0.127356823,-54.61476311,-15.64747565,-63.72133072,3.415828227996826,1.0770329236984253,1.9333876371383667,9.93500042,10.266230583190918,91.00714111328125,145.39999389648438,-86.9097321,40.4184241,-0.018017029,0.010270240270189072,8.940312856564171E-4,0.022460956,0.058762451,0.11236509087594967,0.00290449,-0.00148857,2.8318413634992486E-4,Drive
124,9.592788251858313,2.640549483808499,-0.107125277,-0.72663813,-0.095160901,0.09701682,0.6734363945942481,0.013310859,-0.272323707,1.6485817536567022,6.009475874900818,-52.0217749,-28.8034675,-12,9.592788251858313,2.640549483808499,-0.107125277,-54.65063099,-16.14169774,-63.66362457,3.1865758895874023,1.0685036182403564,1.9433391094207764,9.93500042,11.319300651550293,91.00132751464844,145.39999389648438,-86.9095973,40.4184164,-0.020235057,0.015441685115344352,0.00109567,0.004559711,-0.038884684,0.023172320128933898,6.864617999136737E-4,0.003682875,4.8482300684271943E-4,Drive
125,9.606767654418945,2.5575324609441665,-0.151212453,-0.734891893,-0.093149061,0.093775288,0.6651696661143627,0.014406726822184706,-0.26474923,1.6722312170324973,6.028385877609253,-51.57086304,-29.05954556,-19.66666667,9.606767654418945,2.5575324609441665,-0.151212453,-54.63159912,-15.69078564,-63.91933674,2.976552963256836,1.0685036182403564,1.9532780647277832,9.93500042,12.31044864654541,91.00106048583984,145.39999389648438,-86.9094525,40.4184116,-0.018194946,0.011646129310727843,0.004120254,0.025906326701340167,-0.037830022,-0.014916893,0.002726573,-1.13E-04,0.003509407,Drive
126,9.358248071763121,2.4116196539795514,-0.232887853,-0.742814645,-0.086356644,0.092087144,0.6574493125081062,0.023975926254374478,-0.252029927,1.6955702706025197,5.8096398782730105,-51.54646317,-28.69927952,-22.25,9.358248071763121,2.4116196539795514,-0.232887853,-54.85107727,-15.66626366,-63.55931446,2.7847533226013184,1.0685036182403564,1.963347315788269,9.93500042,13.23197078704834,91.00093078613281,145.39999389648438,-86.9092984,40.4184056,-0.02175556,0.041431890218518674,-0.018783553,-0.209278895,-0.054812107,-0.002447212,-8.34E-04,0.029673080313771676,-0.0193944,Drive
127,10.074805509696887,1.9821050896227939,-0.391362986,-0.749820267,-0.084179508,0.093810921,0.6495000737384685,0.032349121,-0.250740865,1.7180235790974885,4.852061915397644,-52.16414875,-27.90908541,-23.66666667,10.074805509696887,1.9821050896227939,-0.391362986,-55.80755672,-16.28394978,-62.77082867,2.6166493892669678,1.0685036182403564,1.9734290838241577,9.93500042,14.073582649230957,91.00077819824219,145.39999389648438,-86.9091326,40.4184009,-0.01461289,-0.009692011,0.025648171661955134,0.5880858875015407,-0.449127216,-0.084487459,0.006308629,-0.021450821,0.025037324373063278,Drive
128,9.380843366234048,1.706494904837562,-0.139228012,-0.75852538,-0.078814044,0.079287202,0.6419471548598947,0.019555466873480858,-0.223228202,1.7390845944580522,3.244223948717117,-53.39854496,-28.19041737,-20.25,9.380843366234048,1.706494904837562,-0.139228012,-57.41563911,-17.51858969,-63.05020866,2.4685463905334473,1.0685036182403564,1.9833296537399292,9.93500042,14.629002571105957,91.00048828,145.39999389648438,-86.9089612,40.4183984,-0.020994168,-8.91E-04,-0.022923081,-0.164422771,-0.460987401,0.047438612,-7.26E-05,-0.012649876,-0.023533928,Drive
129,9.474596890119406,1.8894584683271556,0.049498641558994465,-0.768631399,-0.076888303,0.064499319,0.6317497717524038,0.002033443,-0.201056785,1.765876816314401,4.145925908088684,-52.25967503,-29.93111347,-20.22222222,9.474596890119406,1.8894584683271556,0.049498641558994465,-56.51418091,-16.37984162,-64.79053864,2.3595094680786133,1.0685036182403564,1.9933654069900513,9.93500042,14.79671573638916,91.00016021728516,145.39999389648438,-86.908786,40.4183955,-0.024101779,0.007008435,-0.02163022,-0.098772183,-0.063518062,0.065544,-0.003180261,-0.004750375,-0.022241067,Drive
130,9.618406573545586,1.8708591669508554,-0.095489305,-0.776399106,-0.072180022,0.060206023162429775,0.623183098,0.003579471,-0.188233037,1.7892110278305497,4.105055935382843,-51.04187096,-29.62733349,-17.875,9.618406573545586,1.8708591669508554,-0.095489305,-56.55480698,-15.16203769,-64.48688087,2.25749135,1.0737783908843994,2.0033628940582275,9.93500042,15.143105506896973,91.00034332,145.39999389648438,-86.9086084,40.4183904,-0.016973251,0.009463685,-0.007788303,0.040993459016374016,0.050175480472231374,-0.059115866,0.003948268,-0.002295125,-0.00839915,Drive
131,9.792597622547335,1.5257438716379184,-0.094002502,-0.782456864,-0.070608334,0.059644734902867994,0.6157944023030476,0.006479645,-0.185006468,1.8086634642869523,3.751255917549133,-50.67843319,-29.49081533,-17.88888889,9.792597622547335,1.5257438716379184,-0.094002502,-56.90848495,-14.79872169,-64.35060608,2.186605930328369,1.1759676933288574,2.0135176181793213,9.93500042,15.755550384521484,91.00070953,145.39999389648438,-86.9084237,40.4183847,-0.017803529,0.015192601627453221,-0.001051191,0.080097231,-0.287931375,-0.030726496,0.00311799,0.003433792,-0.001662038,Drive
132,9.798434465834237,1.166954052390404,-0.098866552,-0.789504378,-0.065285599,0.055949626,0.6076800759556225,0.009125044,-0.171931064,1.8303991833936821,4.898787908554077,-50.66171909,-29.50704138,-16.11111111,9.798434465834237,1.166954052390404,-0.098866552,-55.76144104,-14.7818857,-64.36671059,2.082379102706909,1.0737783908843994,2.023425817489624,9.93500042,16.201221466064453,91.00039672851562,145.39999389648438,-86.9082316,40.4183801,-0.020069001,0.015251907,-0.004194385,0.052095214,-0.519979778,0.001175245,8.525174355260956E-4,0.003493097,-0.004805233,Drive
133,10.07241269917164,1.0478733768415394,-0.055964172,-0.797682071,-0.058765483,0.052999486,0.597840857,0.014463249,-0.157772246,1.8564096918472877,5.391911907196045,-51.12861294,-28.62315144,-16.875,10.07241269917164,1.0478733768415394,-0.055964172,-55.26782902,-15.24853571,-63.48404053,2.0165579319000244,1.0685036182403564,2.033374547958374,9.93500042,16.20989990234375,91.00000762939453,145.39999389648438,-86.908038,40.418377,-0.026806797,0.012663333762387853,0.011523868394970823,0.2963665173603938,-0.509856684,0.076513006,-0.005885278,9.045239376763885E-4,0.010913021643668449,Drive
134,9.901023855,0.7953144297437761,-0.073271483,-0.805849813,-0.055509023,0.044107407,0.5878451732755865,0.00587282,-0.141795147,1.8815413343096243,5.792681884765625,-51.0562669,-28.98219742,-16.22222222,9.901023855,0.7953144297437761,-0.073271483,-54.86705864,-15.17704371,-63.84333042,1.965826392173767,1.0685036182403564,2.0434377193450928,9.93500042,16.072683334350586,90.99990844726562,145.39999389648438,-86.9078464,40.4183711,-0.019677584,0.012084990468563385,-0.002735469,0.085385073,-0.60594959,-0.015615718,0.001243934,3.2618060680920057E-4,-0.003346316,Drive
135,9.965618452979523,0.6343912974144649,-0.194419745,-0.812275824,-0.047040849,0.042464711,0.579801849,0.014542261,-0.125988311,1.9026492035504683,6.014721875190735,-50.677701,-28.43795538,-17.375,9.965618452979523,0.6343912974144649,-0.194419745,-54.64587315,-14.79786771,-63.29762493,1.9310470819473267,1.0737783908843994,2.053471565246582,9.93500042,15.697415351867676,90.99967193603516,145.39999389648438,-86.9076599,40.4183655,-0.01941664,0.020269157533371114,-0.00157308,0.11772834444508969,-0.613122435,-0.051159325,0.001504879,0.008510348,-0.002183927,Drive
136,10.035152666777083,0.45553070849295957,-0.138928909,-0.819290533,-0.035481855,0.034178983,0.5711787400893795,0.015494159648864015,-0.097357765,1.9247354130143102,5.348601870536804,-50.89278717,-28.68964148,-18.88888889,10.035152666777083,0.45553070849295957,-0.138928909,-55.31089489,-15.01283169,-63.54882278,1.9117170572280884,1.059999942779541,2.063366174697876,9.93500042,15.150808334350586,90.99945831298828,145.39999389648438,-86.9074765,40.4183618,-0.019914807,0.003378934,-2.09E-04,0.1323014231561457,-0.511485314,0.01441918,0.001006712,-0.008379876,-8.20E-04,Drive
137,10.045207472947927,0.3712096199608193,-0.065244681,-0.826526837,-0.019453691,0.017105317529905767,0.5622820750023555,0.006387797,-0.051419818,1.9470024108886719,5.575399923324585,-50.93560871,-29.30915743,-15.25,10.045207472947927,0.3712096199608193,-0.065244681,-55.08507313,-15.05589775,-64.16931469,1.9153387546539307,1.1177208423614502,2.0733728408813477,9.93500042,14.347370147705078,90.99902344,145.39999389648438,-86.9073018,40.4183586,-0.021065335,0.008384324,0.00248342,0.046397598,-0.14267258,-0.002556356,-1.44E-04,-0.003374486,0.001872573,Drive
138,10.101913535479204,0.2935708803260355,-0.067161654,-0.832633138,-0.013209953,0.012754118504020775,0.5535101473910137,0.006613237,-0.036125071,1.9683339283304306,5.616513929367065,-50.83251926,-29.39272736,-16.77777778,10.101913535479204,0.2935708803260355,-0.067161654,-55.04322701,-14.95280776,-64.25422684,1.9145781993865967,1.059999942779541,2.083515167236328,9.93500042,13.545296669006348,90.99908447265625,145.39999389648438,-86.9071362,40.4183558,-0.021824446,0.014362323917878015,0.003396726,0.055001213,-0.070115381,0.009136695,-9.03E-04,0.002603514,0.002785879,Drive
139,10.194272420938733,-0.031254794,0.1726752570739866,-0.839234997,-0.00951119,0.007635768,0.5435781565684716,0.002444712,-0.024306957,1.9921387480300607,5.647867927551269,-51.51547497,-28.96914333,-21.75,10.194272420938733,-0.031254794,0.1726752570739866,-55.01187302,-15.63539769,-63.82856884,1.9413548707962036,1.131591797,2.093327522277832,9.93500042,12.630579948425293,90.99863434,145.39999389648438,-86.9069872,40.418349,-0.042083225,0.006284907,0.006409448,0.043816242,-0.27478888,0.18230154824633044,-0.021161706,-0.005473903,0.005798601,Drive
140,10.222318380781747,-0.341363446,1.2128561672944467,-0.85864984,-0.015198236,-0.025796839,0.5112200233225639,-0.059934822,-1.08E-04,2.067595878472695,6.318501863479614,-53.57568909,-29.11468948,-25.55555556,10.222318380781747,-0.341363446,1.2128561672944467,-54.34172688,-17.69573366,-63.97460255,1.9722589254379272,1.0685036182403564,2.103363275527954,9.93500042,11.443249702453613,91.99351501464844,145.39999389648438,-86.9068482,40.4183391,-0.130509867,-0.016845288,0.005074731,0.015826693,-0.338671066,0.5939653934194491,-0.109588348,-0.028604097,0.004463884,Drive
141,10.233376456695852,-0.447783073,1.6564256670405564,-0.89816863,-0.023427961,-0.067783272,0.43266945788003863,-0.142764956,0.016103997,2.2449639653696596,6.639483876228333,-57.50689487,-28.93412949,-34.11111111,10.233376456695852,-0.447783073,1.6564256670405564,-54.02050102,-21.62681755,-63.79379906,2.040562391281128,1.0770329236984253,2.1133763790130615,9.93500042,9.852217674255371,97.95938110351562,145.39999389648438,-86.9067316,40.4183291,-0.208648818,-0.014673678,0.007702309,0.038490305,-0.28176057,0.19046455563850773,-0.187727299,-0.026432487,0.007091462,Drive
142,10.348795261197877,-0.794202229,1.5100046697172147,-0.938295112,-0.012242276,-0.084767501,0.33336317597083676,-0.168520796,0.033527210173965656,2.461686016286461,7.188605861663818,-63.69607677,-27.46707943,-40.375,10.348795261197877,-0.794202229,1.5100046697172147,-53.47113487,-27.81599955,-62.3265049,2.1223220825195312,1.123610258102417,2.1233837604522705,9.93500042,8.057898521,108.87208557128906,145.39999389648438,-86.9066416,40.4183111,-0.247861654,-0.02525379,0.013763337661127913,0.068092217,-0.444342529,-0.239167391,-0.226940135,-0.037012599,0.013152490547424164,Drive
143,10.275125966488737,-0.716301913,0.662170106,-0.970277939,0.009807812,-0.069085382,0.22982988803132068,-0.130260187,0.05141363,2.679724318309895,7.299869861602783,-69.96309448,-24.92996758,-40.77777778,10.275125966488737,-0.716301913,0.662170106,-53.36011494,-34.08301744,-59.79036903,2.2148683071136475,1.0855873823165894,2.133469820022583,9.93500042,5.790422439575195,123.74588775634766,145.39999389648438,-86.9065835,40.4182856,-0.204236484,-0.02291715,0.006539921,0.002541496,-0.183142935,-0.684560195,-0.183314966,-0.03467596,0.005929073,Drive
144,10.118067796413715,-0.095905597,0.16317209726073018,-0.986557575,0.007633045,-0.0326836,0.15898827976972155,-0.062014302,0.025700602409185716,2.8228920200496046,7.741997895240783,-72.58609505,-22.74848555,-43.375,10.118067796413715,-0.095905597,0.16317209726073018,-52.91798698,-36.70601719,-57.60766697,2.3141467571258545,1.1205801963806152,2.1433472633361816,9.93500042,3.545715570449829,131.8154297,145.39999389648438,-86.9065575,40.4182621,-0.113060118,-0.007936566,0.001226142,-0.059855378,0.1650107973842945,-0.468311497,-0.092138599,-0.019695376,6.152951323599058E-4,Drive
145,9.916495934273433,0.79483238,0.094536822,-0.990519933,-0.016583334,-0.009571171,0.13528682682120685,-0.023448572,-0.030270044,2.8698273746712695,8.298073854446411,-73.19865662,-21.54751757,-45.77777778,9.916495934273433,0.79483238,0.094536822,-52.36117901,-37.31882328,-56.40804089,2.4186527729034424,1.0685036182403564,2.153285026550293,9.93500042,1.6387430429458618,137.93907165527344,145.39999389648438,-86.9065538,40.4182511,-0.044182642,0.006676323,0.002317365,-0.113908953,0.48287389955474336,-0.141905213,-0.023261123,-0.005082486,0.001706517,Drive
146,9.762623472121156,1.6962092455151012,0.16461690479111904,-0.989108852,-0.058615918,2.7110792164695314E-5,0.13431521700423898,-0.015809094,-0.116245692,2.8707277219272354,7.866803860664367,-72.8032547,-21.92827967,-39.75,9.762623472121156,1.6962092455151012,0.16461690479111904,-52.79293705,-36.9231773,-56.78843666,2.5260610580444336,1.0653167963027954,1.7221235036849976,9.93500042,0.4021802842617035,139.19300842285156,134.6999969482422,-86.9065608,40.4182508,-0.022903807,0.011491934863796223,0.002602031,-0.088358203,0.528735745,0.006823707,-0.001982288,-2.67E-04,0.001991184,Drive
147,9.456484461293638,3.369651824525259,0.48152942134483345,-0.984570422,-0.119389308,0.001216749,0.12583050052228484,-0.028166585,-0.237819788,2.8838908903807114,7.1352919006347655,-72.95307076,-21.67488556,-25,9.456484461293638,3.369651824525259,0.48152942134483345,-53.52481522,-37.0733593,-56.534799,45,0.078102499,1.7320857048034668,9.93500042,0.3955020308494568,139.3220215,134.6999969482422,-86.9065672,40.418253,-0.092896228,0.00311799,-7.90E-04,-0.200383492,1.0309768000852715,0.2092556883264514,-0.071974709,-0.00864082,-0.001401094,Drive
148,9.340269949829693,3.950187173861902,1.2815597962985918,-0.757417924,-0.121922743,-0.011580266,0.053457914278904076,-0.054487452,-0.322013421,2.4846654740663676,7.221789884567261,-74.925811,-19.4138596,-13.875,9.340269949829693,3.950187173861902,1.2815597962985918,-53.43831718,-39.04573311,-54.27389492,11.710892677307129,1.0770329236984253,1.742069125175476,9.93500042,1.204723596572876,138.9751739501953,134.6999969482422,-86.9065635,40.4182492,-0.258729054,-0.043687326,-0.003324419,-0.154143654,0.7620742321014404,0.7554827673503985,-0.237807537,-0.055446136,-0.003935266,Drive
149,9.521224290421866,2.8602216388415362,2.3476058453032116,0.9765643865159415,0.17317479573985906,0.048167606,0.10562992853664079,-0.061682041,-0.3573171,-2.937231099,7.102839851379395,-78.68877838,-14.63060572,-21.22222222,9.521224290421866,2.8602216388415362,2.3476058453032116,-53.5567791,-42.80857918,-49.49064098,11.286885261535645,1.2503199577331543,1.7519978284835815,9.93500042,2.551602363586426,151.7628173828125,134.6999969482422,-86.9065515,40.4182341,-0.382425966,-0.063007709,-0.001964497,0.081767064,-0.67079031,1.7642842224500712,-0.36150445,-0.074766518,-0.002575344,Drive
150,9.414177385348719,2.4474945816310862,2.443333262,0.944881932,0.147019363,0.084822769,0.2754263655074592,-0.084588584,-0.33208082,-2.58844014,4.617577929496765,-80.92674606,-8.93625586,-20.33333333,9.414177385348719,2.4474945816310862,2.443333262,-56.04204086,-45.0466692,-43.79665707,10.129345893859863,1.145862102508545,1.7619589567184448,9.93500042,5.312309741973877,175.80764770507812,134.6999969482422,-86.9065433,40.4181884,-0.366638827,-0.055511486,-0.025568109,-0.046897694,-0.828122336,1.6414940033144163,-0.345717309,-0.067270295,-0.026178956,Drive
151,9.192209399663485,3.6156614262324114,1.9309647278143809,0.9028727458518686,0.12663478859998648,0.12579465686406904,0.3901087647502862,-0.136036289,-0.333462964,-2.348835607,4.351129925251007,-76.90452843,-4.583417928,-11.125,9.192209399663485,3.6156614262324114,1.9309647278143809,-56.30824497,-41.02469532,-39.44345329,9.210714340209961,1.1130588054656982,1.7720125913619995,9.93500042,6.283263206481934,198.66372680664062,134.6999969482422,-86.9065556,40.4181301,-0.229026209,-0.016334233,-0.014394942,-0.176106601,0.34105167111146795,0.6464583109883428,-0.208104689,-0.028093043,-0.015005789,Drive
152,9.383154906115486,3.2867248451825484,1.3777866919063828,0.8723287408791699,0.12688894851983173,0.14109572348664107,0.4504086586456854,-0.141183995,-0.355905251,-2.21379841,3.526653926372528,-73.90174271,-1.835123943,-24.33333333,9.383154906115486,3.2867248451825484,1.3777866919063828,-57.13308697,-38.02178741,-36.69613533,7.543844699859619,1.0855873823165894,1.7820079326629639,9.93500042,7.993870735168457,209.83197021484375,134.6999969482422,-86.9066029,40.4180678,-0.139901814,0.006142573,-0.004977219,0.066674195,-0.192734329,0.067575422,-0.118980295,-0.005616236,-0.005588066,Drive
153,9.580838643231438,2.4908296355923403,1.004419248894725,0.8638310432434082,0.1172825793184123,0.12506564518491042,0.4736674749156804,-0.111106617,-0.32688569,-2.156827184,4.8503538870811465,-69.46594467,-0.718945984,-20.125,9.580838643231438,2.4908296355923403,1.004419248894725,-55.80999687,-33.58598949,-35.57910336,5.886775016784668,1.0907795429229736,1.7920360565185547,9.93500042,10.175639152526855,217.8791504,134.6999969482422,-86.9066758,40.4179962,-0.089266728,0.004529462,2.0608683659252032E-4,0.16533295622149718,-0.734230176,-0.049352348,-0.068345209,-0.007229348,-4.05E-04,Drive
154,9.523074029718789,3.1135820624897783,0.20359610064967887,0.862233038,0.12057738577567258,0.11036556988086516,0.47937540145753654,-0.078774955,-0.319160247,-2.139444858,4.736771893501282,-68.57253906,0.056241999,-11.11111111,9.523074029718789,3.1135820624897783,0.20359610064967887,-55.92345688,-32.69246143,-34.80269516,4.9000701904296875,1.0770329236984253,1.8019860982894897,9.93500042,11.200702667236328,223.90232849121094,134.6999969482422,-86.9067689,40.4179217,-0.036816891,0.030944158459303775,0.002756226,0.057328113,-0.023653866,-0.528054272,-0.015895372,0.019185348260171205,0.002145379,Drive
155,9.464728642435906,3.2293116213048547,-0.42800163,0.8696621960172286,0.13619969770885432,0.088348304,0.4659621618114985,-0.028224757,-0.325066604,-2.162453787,5.210253896713257,-68.67135857,0.9542839688062668,-20,9.464728642435906,3.2293116213048547,-0.42800163,-55.44960899,-32.79115936,-33.90550758,4.9000701904296875,1.0770329236984253,1.8019860982894897,9.93500042,11.200702667236328,223.90232849121094,134.6999969482422,-86.9067689,40.4179217,0.003935266,0.023388402134094995,0.003065983,0.006408132,0.035949161,-0.695835494,0.024856785,0.011629592025061496,0.002455136,Drive
156,9.684604061460032,2.4013949898840155,-0.882963171,0.8842484731118656,0.15014996994467614,0.047887405,0.4393401475786005,0.049826705,-0.312867008,-2.211506105,3.9934259176254274,-70.63263069,0.6339119908958674,-21.11111111,9.684604061460032,2.4013949898840155,-0.882963171,-56.66668079,-34.75255333,-34.22587917,3.3503029346466064,1.0770329236984253,1.822040081,9.93500042,14.436209678649902,223.02688598632812,134.6999969482422,-86.9069959,40.4177466,0.028478529485105313,0.023602130100045138,0.00461842,0.1404606809893858,-0.689667264,-0.406146762,0.049400048,0.011843320081751901,0.004007573,Drive
157,9.582412572,2.700332301,-1.210486578,0.9051700917262475,0.14533549605064022,0.029488064565704863,0.39806015775041675,0.065096748,-0.290759045,-2.303440541,4.326485888957977,-72.4975222,-0.789827986,-7.888888889,9.582412572,2.700332301,-1.210486578,-56.33386497,-36.61781136,-35.64961941,2.993206501,1.1543396711349487,1.8319282531738281,9.93500042,15.470735549926758,220.0518341064453,134.6999969482422,-86.907115,40.4176433,0.045748308,0.033411269,0.001131254,-0.001598367,-0.173725169,-0.585706671,0.066669826,0.021652459585134988,5.204065282404134E-4,Drive
158,10.01852982548567,2.8094009928978405,-1.048479083,0.9233172431732845,0.15384904461578258,0.012758516539249894,0.3514470539046723,0.088551642,-0.297522671,-2.400910727,5.900407873392105,-72.40407005,-2.627025946,-10.5,10.01852982548567,2.8094009928978405,-1.048479083,-54.75969891,-36.52423744,-37.48840313,2.692455530166626,1.1151680946350098,1.8419746160507202,9.93500042,16.658124923706055,216.06417846679688,134.6999969482422,-86.9072385,40.4175254,0.023947584741179227,0.026306463758126626,0.025928390541258586,0.4267777239234702,-0.132728431,-0.212406569,0.044869104,0.014547653437492628,0.025310130048999836,Drive
159,9.729025188001614,2.789299415153207,-0.063973159,0.9291944260736114,0.1578308560894531,0.022389406582467186,0.3333800151510146,0.066948319,-0.313315026,-2.442044846,7.338177819252014,-70.10363853,-4.653323915,-17.22222222,9.729025188001614,2.789299415153207,-0.063973159,-53.322173,-34.22368345,-39.5126273,2.426905393600464,1.1013628244400024,1.8520585298538208,9.93500042,17.77973175048828,213.04823303222656,134.6999969482422,-86.9073599,40.4173919,-0.022453085,-0.008446594,0.008965518,0.14660004273201654,-0.340278514,0.5829351587781628,-0.001531566,-0.020205404,0.00834874,Drive
160,9.624861911662574,2.7559044523146548,-0.085151384,0.9345386664844254,0.15180852517340948,0.028401007116274926,0.3205610296679932,0.046428765197402064,-0.30673379,-2.473536181,0.3901559830456972,-70.19489498,-15.95198771,-14.5,9.624861911662574,2.7559044523146548,-0.085151384,-60.2697068,-34.31506121,-50.81202293,2.184584856033325,1.0685036182403564,1.8620585203170776,9.93500042,18.70602798461914,213.0060272216797,134.6999969482422,-86.9074822,40.4172462,-0.020329946,0.013721823981664712,0.001665003,0.011403106948704396,-0.289138876,0.3707884331640688,5.915729126675977E-4,0.001963014,0.001054156,Drive
161,9.634009315,2.7625079363295177,-0.178067821,0.9404300995243405,0.15040279432986547,0.027818942261697018,0.3035942084580949,0.040899656,-0.304464973,-2.510789316,6.259575887024402,-78.80748497,-9.033123791,-12,9.634009315,2.7625079363295177,-0.178067821,-54.40016502,-42.92728508,-43.89242733,2.046964406967163,1.1871393918991089,1.8720512390136719,9.93500042,19.741573333740234,213.0087127685547,134.6999969482422,-86.9076138,40.4170972,-0.01760189,0.014303018425442097,0.002554587,-5.49E-04,-0.263638721,0.21484216830684144,0.003319629,0.002544208,0.00194374,Drive
162,9.652213869742976,2.244711566897272,-0.195982049,0.9461673096968577,0.14406829771514124,0.025681333,0.28866289,0.036128601,-0.291571605,-2.544048713,13.287263689041138,-78.76990845,2.4541519524902107,-12.875,9.652213869742976,2.244711566897272,-0.195982049,-47.37296509,-42.88995312,-32.40490732,2.0731289386749268,1.5250245332717896,1.88202703,9.93500042,20.022483825683594,213.0046844482422,134.6999969482422,-86.9077476,40.4169445,-0.01671607,0.012005498181679286,-0.00307773,0.030112977211291973,-0.641150056,0.14677982146923357,0.004205448,2.466883071554968E-4,-0.003688578,Drive
163,9.975364013782983,2.4376880756570296,-0.010886758,0.9509480387261771,0.13716662277295752,0.027484987744862594,0.27587050344180136,0.024365166319733105,-0.279662697,-2.573453563,6.322283890247345,-76.16972244,0.099673994,-8.222222222,9.975364013782983,2.4376880756570296,-0.010886758,-54.33745686,-40.28964539,-34.76011709,1.9959466457366943,1.4365583658218384,1.8920749425888062,9.968999862670898,20.606081008911133,213.0077667236328,134.6999969482422,-86.9078856,40.4167886,-0.020187612,0.007304962,0.016728616,0.34087884773328464,-0.330247601,0.22389768917583724,7.339063206759905E-4,-0.004453847,0.016117769,Drive
164,9.354513610450967,2.3443999339654606,0.009170551,0.9544736783481339,0.13259928188856365,0.026933059458015034,0.2658031351357988,0.019807037,-0.270741557,-2.595689679,6.756725881099701,-75.42393623,-2.802339939,-13.33333333,9.354513610450967,2.3443999339654606,0.009170551,-53.90325901,-39.54410316,-37.66298538,1.75808847,1.131591797,1.9020682573318481,9.968999862670898,21.407445907592773,213.0052947998047,134.6999969482422,-86.9080211,40.4166237,-0.024955779,0.010732823707619953,-0.012839654,-0.289216412,-0.33298525,0.2002565788412557,-0.004034261,-0.001025986,-0.013451983,Drive
165,9.627931349485824,2.3812854035386763,-0.069763557,0.9577100878780328,0.13011474936332518,0.025515302,0.2553393930486105,0.018220580915368878,-0.265360713,-2.618052244,5.8702738881111145,-74.48453636,-1.917473967,-10.75,9.627931349485824,2.3812854035386763,-0.069763557,-54.78971092,-38.60433739,-36.77775322,1.658085823059082,1.0685036182403564,1.9121254682540894,9.968999862670898,21.843753814697266,213.0025634765625,134.6999969482422,-86.9081576,40.4164572,-0.021492335,0.014172546083482833,-7.41E-06,-0.018168556,-0.24067663,0.10601225292798384,-5.71E-04,0.002413736,-6.18E-04,Drive
166,9.706833041631258,2.3919368432118344,-0.092609714,0.9608435034751892,0.1275701800596367,0.024589267279048567,0.24472326141537973,0.015718409,-0.260109695,-2.640747901,5.324079904556275,-74.81747429,-1.89124396,-9.888888889,9.706833041631258,2.3919368432118344,-0.092609714,-55.33614883,-38.93764149,-36.75103516,1.5921504497528076,1.0685036182403564,1.9220219850540161,9.963999748,22.323102951049805,213.0029297,134.6999969482422,-86.9083008,40.4162887,-0.020401112,0.013709962834803007,0.003242531,0.066114324,-0.180202129,0.057322079,5.204062349416171E-4,0.001951153,0.002631684,Drive
167,9.708395856098065,2.3530622986913885,-0.156634055,0.9637603215800906,0.1256228867665078,0.021326209282846127,0.2343435394532472,0.018367286219975902,-0.254893089,-2.662185646,6.893487873077393,-75.31840637,-0.58157399,-10.875,9.708395856098065,2.3530622986913885,-0.156634055,-53.76564278,-39.43832928,-35.4414872,1.5439621210098267,1.0737783908843994,1.9320100545883179,9.963999748,22.743986129760742,213.00257873535156,134.6999969482422,-86.9084485,40.4161154,-0.019440362,0.013543907183367144,0.001890365,0.066972696,-0.155591039,0.022498102,0.001481156,0.001785097,0.001279518,Drive
168,9.560325446638089,2.283940496953946,-0.249094579,0.9665952394309553,0.12402646149535781,0.019746664803004958,0.22340145330984615,0.017806435,-0.251227408,-2.685075984,7.574003839492798,-75.11564224,-1.167539969,-13,9.560325446638089,2.283940496953946,-0.249094579,-53.085737,-39.23580917,-36.02733131,1.5042680501937866,1.0685036182403564,1.9420360326766968,9.963999748,23.25279426574707,213.00302124023438,134.6999969482422,-86.9085993,40.4159389,-0.013853779,0.011539379285662028,-0.005404219,-0.105654837,-0.189786469,-0.07688998,0.00706774,-2.19E-04,-0.006015066,Drive
169,9.749608150963644,2.2424552243890115,-0.31260021,0.96936692,0.1225191313916674,0.016291287620193683,0.21222341074966466,0.021062888473702166,-0.246956075,-2.707919682,6.789665899276733,-75.13613876,-1.229881974,-13.375,9.749608150963644,2.2424552243890115,-0.31260021,-53.86995281,-39.25606098,-36.09016132,1.4756145477294922,1.0685036182403564,1.9520232677459717,9.93500042,23.682729721069336,212.01431274414062,134.6999969482422,-86.9087517,40.4157585,-0.012498875,0.014519369562129633,0.003688578,0.082797766,-0.199037497,-0.107300164,0.008422644,0.00276056,0.00307773,Drive
170,9.693446437132012,2.194070261658974,-0.147507062,0.9719276364567211,0.12002762320261558,0.013610677233020079,0.20188223939497493,0.022668747430287517,-0.241142081,-2.729242809,7.728333864212036,-75.16017273,-1.620891958,-12.77777778,9.693446437132012,2.194070261658974,-0.147507062,-52.93189514,-39.28046131,-36.48141533,1.4587256908416748,1.092931866645813,1.9620699882507324,9.93500042,23.89680290222168,212.00160217285156,134.6999969482422,-86.9089037,40.4155756,-0.01920314,0.013247379369115981,9.933682056867238E-5,0.020061576250687385,-0.185508852,0.071804061,0.001718379,0.00148857,-5.12E-04,Drive
171,9.690220249509348,2.135132493,-0.029898668,0.9745243018113293,0.11258518370320496,0.016059656383343113,0.1932613799004879,0.012558891519325452,-0.227591647,-2.748594353,8.381155834197997,-75.04012474,-1.972007966,-12,9.690220249509348,2.135132493,-0.029898668,-52.27882904,-39.16016937,-36.83155548,1.4349348545074463,1.0685036182403564,1.972025990486145,9.93500042,24.21543312072754,212.0019531,134.6999969482422,-86.9090568,40.4153906,-0.023556168,0.008657129,9.177535398212234E-4,0.004428215,-0.108428837,0.091762532,-0.002634649,-0.003101681,3.069063164836284E-4,Drive
172,9.685861522711596,2.078285525,0.2745647836946747,0.9764911283567114,0.105236685,0.024171544,0.18650724803938448,-0.008132414,-0.216207302,-2.765014512,5.984587888717652,-74.80234673,-3.238123941,-11.66666667,9.685861522711596,2.078285525,0.2745647836946747,-54.6750309,-38.92239098,-38.09913528,1.4178334474563599,1.0685036182403564,1.9819984436035156,9.93500042,24.476247787475586,212.00160217285156,134.6999969482422,-86.909211,40.4152043,-0.035429141,0.010792129,-9.68E-04,0.009495652,-0.04722386,0.19596465796376894,-0.014507622,-9.67E-04,-0.00157901,Drive
173,9.660866205508892,2.040232171232884,0.4378865434644887,0.9777122834353771,0.10081100644706523,0.0323214,0.1812981673814718,-0.027252628,-0.210396935,-2.777772795,6.667421871423722,-74.46501671,-1.272215972,-12.5,9.660866205508892,2.040232171232884,0.4378865434644887,-53.99292889,-38.58481716,-36.13176319,1.410173773765564,1.0685036182403564,1.9920862913131714,9.93500042,24.589378356933594,212.98887634277344,134.6999969482422,-86.9093659,40.4150162,-0.046673475,0.022060185458931566,-0.001300274,0.034432078,-0.011324018,0.1768701425165806,-0.025751956,0.010301375689292416,-0.001911122,Drive
174,9.820864307070241,2.0597527626070002,0.7371200522028126,0.9767969377989908,0.10228566854324156,0.03396406,0.185033935,-0.029165861,-0.214036523,-2.770306087,6.831145853996277,-73.5110984,-0.649161983,-12.88888889,9.820864307070241,2.0597527626070002,0.7371200522028126,-53.82871704,-37.63102131,-35.50822147,1.4053411483764648,1.0685036182403564,2.0020649433135986,9.93500042,24.788148880004883,213.9888916015625,134.6999969482422,-86.9095284,40.4148302,-0.059708836,0.001528601,0.006029893,0.1783865308298648,-0.042234422,0.4466542650773687,-0.038787318,-0.010230209,0.005419046,Drive
175,9.870143668165484,2.025280436265816,0.9415002106462868,0.9739499103675768,0.10082668991922175,0.042322497778725855,0.19856413489985233,-0.043415326,-0.214887035,-2.744034124,5.560515878200531,-73.30369896,0.081251998,-14.66666667,9.870143668165484,2.025280436265816,0.9415002106462868,-55.09959087,-37.42349918,-34.77890545,1.4064291715621948,1.0685036182403564,2.012058973312378,9.93500042,24.949230194091797,215.97586059570312,134.6999969482422,-86.9096975,40.414646,-0.067454143,0.001386268,0.005223337,0.18413794619365803,-0.086929641,0.5260122325813886,-0.046532624,-0.010372542,0.00461249,Drive
176,9.694776433185467,1.9930179836680588,0.7458927657664867,0.9711007365902651,0.096799176,0.056718135,0.21062977510748557,-0.071055122,-0.213526336,-2.722029336,5.811713900566101,-72.51533478,0.17726599475368857,-13.75,9.694776433185467,1.9930179836680588,0.7458927657664867,-54.84839275,-36.63562317,-34.68276943,1.4091317653656006,1.0737783908843994,2.0220789909362793,9.93500042,25.109107971191406,218.96177673339844,134.6999969482422,-86.9098792,40.4144655,-0.055379531,-0.004591733,7.991423871078827E-4,-0.067720441,-0.134715838,0.053647407339614574,-0.034458012,-0.016350543,1.882952564504468E-4,Drive
177,9.624098185196663,1.997318681003978,0.008845311,0.9714167112341294,0.095533979,0.054593067,0.21031190512272027,-0.067412688,-0.210122827,-2.722287469,5.093133891820908,-72.03209259,-0.242047996,-12.33333333,9.624098185196663,1.997318681003978,0.008845311,-55.56660698,-36.15189327,-35.10196129,1.4050390720367432,1.0685036182403564,2.032050132751465,9.93500042,25.110570907592773,220.9735565185547,134.6999969482422,-86.9100714,40.414293,-0.024398649,0.009773556,-0.003853037,-0.108738803,-0.081108404,-0.644553298,-0.003477131,-0.001985254,-0.004463884,Drive
178,9.856483709464953,2.0323776029846043,-0.207359572,0.9734164794671882,0.097541432,0.042718253,0.2027045200461323,-0.044605734,-0.208749264,-2.735653484,5.895649867,-72.10138847,-0.063805997,-12.25,9.856483709464953,2.0323776029846043,-0.207359572,-54.76457874,-36.22155529,-34.92310936,1.3882014751434326,1.0685036182403564,2.0420734882354736,9.93500042,25.208683013916016,220.99996948242188,134.6999969482422,-86.9102694,40.4141246,-0.017317223,0.011325879214620851,0.005804532,0.12185406916349836,-0.031917652,-0.641818588,0.003604295,-4.33E-04,0.005193684,Drive
179,9.852958345876157,2.0357519527083463,-0.161904652,0.9753525066144259,0.10143245214108125,0.019882184100671878,0.1948896086621053,7.69300898593552E-4,-0.207109347,-2.747080916,5.8790578722953795,-72.34612061,-0.095159998,-13.22222222,9.852958345876157,2.0357519527083463,-0.161904652,-54.78092705,-36.46592148,-34.95519547,1.3745005130767822,1.0685036182403564,2.052082061767578,9.93500042,25.298809051513672,221.0001983642578,134.6999969482422,-86.9104664,40.4139528,-0.018171223,0.011337740375045506,0.00429817,0.042604270490627844,-0.025684381,-0.154347964,0.002750295,-4.21E-04,0.003687323,Drive
180,9.823322085233835,2.0237009823322296,0.013370473224383134,0.9767893465977271,0.10145716976772234,0.017327509549202272,0.18783971566019705,0.004357877,-0.206167171,-2.761173193,5.846483883857727,-72.54998238,-0.099795997,-13.125,9.823322085233835,2.0237009823322296,0.013370473224383134,-54.81289104,-36.66990555,-34.96044159,1.3608487844467163,1.0685036182403564,2.0619919300079346,9.93500042,25.359210968017578,221.00013732910156,134.6999969482422,-86.9106624,40.4137815,-0.024837168,0.010910740340901628,0.005448698,-0.01530576,-0.030627001,0.053775074,-0.00391565,-8.48E-04,0.004837851,Drive
181,9.716834633,2.0179335353443926,-0.036455698,0.977842715,0.10099431062207638,0.018697889557885893,0.18240237944913143,2.8196916037345944E-4,-0.205784905,-2.77273154,5.6975218868255615,-72.84668694,0.7897059834003448,-12.22222222,9.716834633,2.0179335353443926,-0.036455698,-54.96282867,-36.96660938,-34.07032928,1.349943757,1.0685036182403564,2.0720584392547607,9.93500042,25.359954833984375,221.0000762939453,134.6999969482422,-86.9108603,40.413611,-0.023164751,0.010756545890579271,8.584479767449417E-4,-0.116263066,-0.040013752,-0.028452633,-0.002243233,-0.001002264,2.476007669702968E-4,Drive
182,9.757768140255827,2.028614122,-0.140325691,0.9790661340778314,0.1012900559213555,0.015635458,0.1758406021930639,0.005112422,-0.205280193,-2.785654436,5.488047885894775,-72.77592628,0.3585579918697476,-13.75,9.757768140255827,2.028614122,-0.140325691,-55.17218067,-36.89597126,-34.50233139,1.3385461568832397,1.0685036182403564,2.082071542739868,9.93500042,25.38958740234375,221.00006103515625,134.6999969482422,-86.911056,40.4134395,-0.019796196,0.015180740633174705,0.001558254,-0.015129413,-8.15E-04,-0.087839686,0.001125323,0.003421931,9.474063713727428E-4,Drive
183,9.705213130099102,2.0249987539735814,-0.118014942,0.9802927774133035,0.10139038609069528,0.013098675061415122,0.16902813980880294,0.008779225,-0.204639663,-2.799196759,5.464867868423462,-72.86657249,1.0216279736161231,-11.88888889,9.705213130099102,2.0249987539735814,-0.118014942,-55.19475075,-36.98649521,-33.83840748,1.329551100730896,1.0685036182403564,2.092149019241333,9.93500042,25.320899963378906,220.9999237060547,134.6999969482422,-86.9112573,40.413267,-0.020401112,0.011266573713142967,0.001581976,-0.044828535,-0.008757045,-0.041282628,5.204062298555108E-4,-4.92E-04,9.711285560274297E-4,Drive
184,9.676156571767862,1.9929773321429503,-0.101610749,0.9813401859540206,0.10115604467976552,0.012090403765726548,0.16306222746005425,0.009456482,-0.203891686,-2.811308547,5.710453915596008,-72.57804283,0.4817779875919223,-12.33333333,9.676156571767862,1.9929773321429503,-0.101610749,-54.94928684,-36.6979652,-34.37801319,1.3199816942214966,1.0685036182403564,2.1020145416259766,9.93500042,25.35948371887207,221.00021362304688,134.6999969482422,-86.9114559,40.4130999,-0.021685078,0.013168457386760006,-0.001785553,-0.070326117,-0.015734369,-0.004798065,-7.64E-04,0.001409647,-0.002396401,Drive
185,9.559108688,1.9682447169590922,-0.086995365,0.98246928,0.099566935,0.011162571,0.15720091586552778,0.009564261,-0.200494165,-2.823308375,5.439003889560699,-72.57804245,0.057218001,-12.375,9.559108688,1.9682447169590922,-0.086995365,-55.22110302,-36.69796524,-34.80232941,1.3118034601211548,1.0685036182403564,2.1120269298553467,9.93500042,25.320493698120117,221.00006103515625,134.6999969482422,-86.9116568,40.4129308,-0.021350001,0.013057601638703417,-0.006507302,-0.134097942,-0.001767772,0.005723593,-4.28E-04,0.001298792,-0.00711815,Drive
186,9.547655642611309,1.9589986650689135,-0.18117791,0.9834707188374788,0.099157802,0.007662474,0.15129653183580602,0.015233553493919881,-0.198662774,-2.834789001,5.6087058997154235,-72.04819633,0.5536359909176827,-12.22222222,9.547655642611309,1.9589986650689135,-0.18117791,-55.0516452,-36.16836334,-34.30517918,1.3039189577102661,1.0685036182403564,2.1220016479492188,9.93500042,25.31999397277832,221.00018310546875,134.6999969482422,-86.9118588,40.4127634,-0.01802889,0.009819518,-0.006732664,-0.064884482,0.023583990856281763,-0.034754183,0.002892629,-0.001939292,-0.007343511,Drive
187,9.579517392278875,1.9453793301165683,-0.054616759,0.9843421317998645,0.098282004,0.009258502,0.1460224413177342,0.010684444370127997,-0.197468798,-2.845991378,5.7425398969650265,-71.70342422,0.8814499849081039,-13.875,9.579517392278875,1.9453793301165683,-0.054616759,-54.91720104,-35.82334736,-33.97943939,1.2969063520431519,1.0685036182403564,2.1320364475250244,9.93500042,25.389110565185547,221.00018310546875,134.6999969482422,-86.9120581,40.412591,-0.022915668,0.012108712612529222,-0.00445533,-0.002660251,0.028084666983595172,0.047787294,-0.001994149,3.49902816894419E-4,-0.005066177,Drive
188,9.589771701739384,1.9117358751021898,-0.081324335,0.985160975,0.097104097,0.009782373,0.14117380325655335,0.008302485,-0.195329495,-2.85611695,4.963447875976563,-71.32071068,0.5769379852153361,-14.11111111,9.589771701739384,1.9117358751021898,-0.081324335,-55.69592697,-35.44063347,-34.28309742,1.2888505458831787,1.0685036182403564,2.141970634460449,9.93500042,25.459125518798828,221.00018310546875,134.6999969482422,-86.9122584,40.4124182,-0.022132835,0.013128768293824481,-0.005510969,-0.005539089,0.011954058721227553,-0.00316885,-0.001211316,0.001369958,-0.006121816,Drive
189,9.686944656001712,1.8449214291804046,-0.122902225,0.9860771281047932,0.094774776,0.008130468,0.13638321939602638,0.009999313,-0.190276248,-2.865765271,5.112897904,-70.72705872,0.3143939907103777,-14.625,9.686944656001712,1.8449214291804046,-0.122902225,-55.54781902,-34.84722546,-34.54515327,1.2801084518432617,1.0685036182403564,2.152034044265747,9.93500042,25.637699127197266,221.0004883,134.6999969482422,-86.912462,40.4122456,-0.021053473,0.01229849,-0.001940774,0.068096411,-0.009360433,-0.025449448,-1.32E-04,5.396805947773086E-4,-0.002551622,Drive
190,9.742656180002157,1.8133443096309032,-0.176087353,0.9869309114021005,0.093026325,0.004856323,0.13147964191089556,0.015139153001160876,-0.185969448,-2.87529903,5.448275886,-70.91981865,0.8194739774055779,-14,9.742656180002157,1.8133443096309032,-0.176087353,-55.21195301,-35.04022926,-34.04043945,1.2719963788986206,1.0685036182403564,2.1619889736175537,9.93500042,25.73871421813965,221.0002899169922,134.6999969482422,-86.9126651,40.4120718,-0.018123779,0.009131574,2.2980899299106117E-4,0.006964637,-0.013527177,-0.023282236,0.00279774,-0.002627236,-3.81E-04,Drive
191,9.822722815,1.821478153895406,-0.123108403,0.9877151990166078,0.091954657,0.004689314,0.126248176,0.014194242817421373,-0.183867298,-2.88602589,5.085569899082184,-70.74670082,0.078446001,-20,9.822722815,1.821478153895406,-0.123108403,-55.57441498,-34.86662319,-34.78134518,1.264593482017517,1.0685036182403564,2.1720290184020996,9.93500042,25.858469009399414,221.0002899169922,134.6999969482422,-86.9128681,40.4118957,-0.019335665,0.011688328,0.002431642,0.051092671,0.003152838,0.010937101279313747,0.001585853,-7.05E-05,0.001820795,Drive
192,9.778028756669425,1.7918176211199714,-0.094711055,0.9883409211936506,0.091276074,0.00430256,0.12177688671836576,0.013958571939864784,-0.182484279,-2.895125459,5.338597936630249,-70.89102669,0.2408279967494309,-12.55555556,9.778028756669425,1.7918176211199714,-0.094711055,-55.32114292,-35.01107132,-34.61908527,1.2580995559692383,1.0685036182403564,2.181995153427124,9.93500042,25.840240478515625,221.0000457763672,134.6999969482422,-86.9130716,40.4117222,-0.02197864,0.013472740558197594,5.1892342190574674E-5,-0.110023878,-0.033082934,0.043317126,-0.001057122,0.001713931,-5.59E-04,Drive
193,9.770545385416272,1.7834950025799206,-0.05243592,0.9888941454655916,0.090480575,0.005458758,0.11777083611893423,0.010691255887120384,-0.181226557,-2.903550727,4.675039913654327,-70.96569031,0.36416999086737634,-14,9.770545385416272,1.7834950025799206,-0.05243592,-55.98494492,-35.08585732,-34.49610928,1.251220464706421,1.0685036182403564,2.1920931339263916,9.93500042,25.94858169555664,221.0002899169922,134.6999969482422,-86.9132744,40.4115476,-0.021895612,0.011515657043929926,0.001024504,-0.073026018,-0.0203255,0.052831925,-9.74E-04,-2.43E-04,4.136563172491575E-4,Drive
194,9.767028669709141,1.7377496876762908,-0.067971844,0.9894643935185035,0.088996392,0.006695031,0.11398662033590298,0.007154641,-0.178591652,-2.911562084,4.784107924,-70.73657463,0.032085999492555854,-14.55555556,9.767028669709141,1.7377496876762908,-0.067971844,-55.87599899,-34.85686348,-34.82672924,1.2439372539520264,1.0685036182403564,2.2020137310028076,9.93500042,26.058549880981445,221.00035095214844,134.6999969482422,-86.9134775,40.4113754,-0.021812585,0.012666184956985481,-7.41E-06,-0.026813526,-0.030242705,0.002123182,-8.91E-04,9.073750545424454E-4,-6.18E-04,Drive
195,9.735337028,1.7128296139148564,-0.104369631,0.9900267454026972,0.087612082,0.006050975,0.11014659644909275,0.007434722,-0.175712301,-2.919336752,5.295653901100159,-70.74755455,0.5848679828643799,-17.125,9.735337028,1.7128296139148564,-0.104369631,-55.36494072,-34.86772141,-34.27431343,1.2386609315872192,1.0685036182403564,2.2120542526245117,9.93500042,26.079729080200195,221.00013732910156,134.6999969482422,-86.9136839,40.4111992,-0.018871029,0.004742962,-6.12E-04,0.002432721,-0.011825372,-0.035618819,0.00205049,-0.007015848,-0.001223177,Drive
196,9.783627459146444,1.7095498159093765,-0.123889555,0.9904262249909558,0.088054529,0.002779466,0.1062429648579903,0.013413617776218549,-0.175923187,-2.926685736,5.226845889091492,-70.81587486,0.6995479887723923,-15.66666667,9.783627459146444,1.7095498159093765,-0.123889555,-55.43301704,-34.93579742,-34.16036526,1.2336376905441284,1.0685036182403564,2.2220335006713867,9.93500042,26.07015037536621,221.00006103515625,134.6999969482422,-86.9138907,40.4110227,-0.022132835,0.020447074255942214,4.0031250710915594E-5,0.069282249,-0.015971213,0.004004027,-0.001211316,0.008688264,-5.71E-04,Drive
197,9.849456222311964,1.7141815528128912,-0.103309536,0.9908580600636677,0.087450108,0.003050644,0.10267470220049608,0.012096825562128164,-0.174817037,-2.934025746,5.101673903465271,-70.62933632,0.286089993,-13.55555556,9.849456222311964,1.7141815528128912,-0.103309536,-55.55855507,-34.74925926,-34.57504349,1.230069637298584,1.0685036182403564,2.2319729328155518,9.93500042,25.981138229370117,220.9999237060547,134.6999969482422,-86.9140953,40.4108497,-0.02080439,0.011385184832514056,0.003823726,0.13503095015738775,-0.003820668,0.022764589565182194,1.1712842953201492E-4,-3.74E-04,0.003212879,Drive
198,9.807991231529458,1.6968306818054717,-0.086652704,0.9912763461470604,0.086905009,0.002005868,0.09906004,0.013443843157102283,-0.173561057,-2.941220171,5.023837912082672,-70.96630066,0.672341981,-15.625,9.807991231529458,1.6968306818054717,-0.086652704,-55.63578075,-35.08622349,-34.18671726,1.2267208099365234,1.0685036182403564,2.242027997970581,9.93500042,25.970121383666992,221.0000457763672,134.6999969482422,-86.9142992,40.4106745,-0.022248937,0.011935015707142437,0.001832542,0.084692597,-0.010697535,0.041435368,-0.001327418,1.7620594007894397E-4,0.001221695,Drive
199,9.786702702346357,1.6796511550551478,-0.093250389,0.9915948105089872,0.086060405,0.001677986,0.096581264,0.013495957198579914,-0.171842421,-2.946242302,5.519523882865906,-70.63848671,0.7534719815850258,-14.55555556,9.786702702346357,1.6796511550551478,-0.093250389,-55.1403389,-34.75828728,-34.10595329,1.2241592407226562,1.0685036182403564,2.2520220279693604,9.93500042,25.930484771728516,220.99996948242188,134.6999969482422,-86.9145005,40.4105005,-0.022322613,0.014113240667903633,-5.77E-04,0.090438426,-0.00338012,0.037600422,-0.001401094,0.002354431,-0.001187594,Drive
200,9.815567590657947,1.696644835101748,0.015919240397001048,0.9917871720582536,0.085861322,0.005105998,0.094631734,0.006213932,-0.172127144,-2.950802736,5.401915898323059,-70.66447289,0.8371639826707542,-17.25,9.815567590657947,1.696644835101748,0.015919240397001048,-55.25758091,-34.7842733,-34.02250542,1.2222130298614502,1.0685036182403564,2.2620418071746826,9.93500042,25.880611419677734,220.9999237060547,134.6999969482422,-86.9147014,40.4103261,-0.027150085,0.008052212,0.002424115,0.051584104889804874,-9.02E-04,0.076414501,-0.006228566,-0.003706597,0.001813268,Drive
201,9.878387867825703,1.6935289345898674,0.092669608,0.9918208481038658,0.085537204,0.009009732,0.094289335,-0.001768001,-0.17222472,-2.952181777,5.345795917510986,-70.62653069,0.8746179877407849,-16,9.878387867825703,1.6935289345898674,0.092669608,-55.31504292,-34.74633114,-33.9865155,1.2222695350646973,1.0685036182403564,2.272001028060913,9.93500042,25.840778350830078,221.98751831054688,134.6999969482422,-86.9149037,40.4101541,-0.028929252,0.014528379455159047,0.002839254,0.047220743975593046,-0.016625293,0.075299434,-0.008007733,0.00276957,0.002228406,Drive
202,9.983917309687687,1.6899223625659943,0.3081708208550341,0.9917650934561942,0.086110752,0.011902161322317077,0.093955402,-0.007540521,-0.173918335,-2.953339732,4.926481904983521,-70.60493668,1.1909639728069306,-17.125,9.983917309687687,1.6899223625659943,0.3081708208550341,-55.73386887,-34.72522522,-33.66846146,1.222835898399353,1.0685036182403564,2.281992197036743,9.93500042,25.800533294677734,221.99984741210938,134.6999969482422,-86.9151116,40.409982,-0.042937225,0.016497324135502603,0.009540782,0.094777765,-0.047305727,0.23068622635333863,-0.022015706,0.004738514,0.008929935,Drive
203,10.02052269167113,1.6872448718663557,0.8385449442469958,0.9907115721008153,0.083799616,0.034991689,0.10091731328408694,-0.053253136,-0.174031305,-2.943205854,5.8818638801574705,-70.63348503,1.5082859622314573,-14.77777778,10.02052269167113,1.6872448718663557,0.8385449442469958,-54.7782428,-34.75340744,-33.35150517,1.2282841205596924,1.0685036182403564,2.2920429706573486,9.93500042,25.66192054748535,222.98751831054688,134.6999969482422,-86.9153218,40.4098122,-0.064156754,0.010033018030881774,0.009481476,0.023462314050174453,-0.074188208,0.3014763692050304,-0.043235235,-0.001725792,0.008870629,Drive
204,9.803469889372298,1.6591321114197517,0.8788309055335314,0.9883715753416413,0.081675916,0.047204037,0.11911960025724855,-0.075050928,-0.173589271,-2.908240235,5.760229887962342,-69.80412834,2.1313399469852445,-16.5,9.803469889372298,1.6591321114197517,0.8788309055335314,-54.89975491,-33.92417326,-32.7279636,1.2402136325836182,1.0685036182403564,2.301945686340332,9.93500042,25.46234703063965,224.97450256347656,134.6999969482422,-86.9155313,40.4096487,-0.066837365,0.00407874,0.002364809,-0.118598188,-0.087098771,0.14129347274604354,-0.045915846,-0.00768007,0.001753962,Drive
