seconds_elapsed,gyroscopeUncalibrated_z,gyroscopeUncalibrated_y,gyroscopeUncalibrated_x,microphone_dBFS,magnetometer_z,magnetometer_y,magnetometer_x,magnetometerUncalibrated_z,magnetometerUncalibrated_y,magnetometerUncalibrated_x,accelerometer_z,accelerometer_y,accelerometer_x,totalAcceleration_z,totalAcceleration_y,totalAcceleration_x,location_bearingAccuracy,location_speedAccuracy,location_verticalAccuracy,location_horizontalAccuracy,location_speed,location_bearing,location_altitude,location_longitude,location_latitude,accelerometerUncalibrated_z,accelerometerUncalibrated_y,accelerometerUncalibrated_x,orientation_qz,orientation_qy,orientation_qx,orientation_qw,orientation_roll,orientation_pitch,orientation_yaw,gyroscope_z,gyroscope_y,gyroscope_x,class
0,-0.03778769,0.018953233059114102,0.004683162,-111.4444444,-122.4414747,44.57473215738932,12.708333117167156,-106.4237735,36.51560216407253,-33.44153626,-0.012569163,0.054302353,-0.061978906,9.787852708395425,1.5009174315960376,0.5542414269664071,45,1.5,1,39.720001220703125,0,0,155.59999084472656,-86.9099061,40.4245665,9.788164752803437,1.5057860874149898,0.5497919729311173,0.15399318830006653,-0.019253873,0.07728853,0.9848310906026099,-0.062419197,-0.14679152,-0.314797044,-0.016255324,0.006889,0.003919603,Garage
1,0.081604449,0.045189354,0.016733063158841387,-86.5,-122.9908819,45.39070938110351,12.860141735076905,-106.9704522,37.350543632507325,-33.27976954,0.1714724198128413,0.20134141838666306,0.1939147042417989,9.947274467320119,1.781761363727375,0.9447932437206935,45,1.5,1,39.720001220703125,0,0,155.59999084472656,-86.9099061,40.4245665,9.947274467320119,1.781761363727375,0.9447932437206935,0.1725214579441015,-0.023333508,0.085154125,0.9806704561687211,-0.07667237,-0.159569701,-0.3544324,0.10313681556020403,0.033125120289714156,0.015953195290368736,Garage
2,-0.137327953,-0.033568429,0.060567285,-74.55555556,-125.0734216,39.74247528076172,12.012607774734498,-109.0537241,31.702065334320068,-34.12766935,-0.34669415,-0.46953197,-0.410654044,9.338508074,1.975447644936279,0.5706997000245162,45,1.5,1,39.720001220703125,0,0,155.59999084472656,-86.9099061,40.4245665,9.338508074,1.975447644936279,0.5706997000245162,0.18168620244391914,-0.026029331,0.1296422704330926,0.9740895368520496,-0.100629816,-0.245647203,-0.381121976,-0.115795587,-0.045632663,0.059768143,Garage
3,0.063978837,0.013306683788948594,-0.043229305,-70.25,-127.4160657,37.536349334716796,12.429725742340088,-111.3960017,29.495939521789552,-33.71018532,0.13318833101142957,0.23056083396800514,-0.312963723,9.862303131992377,2.412595374202265,0.3498690038178008,45,1.5,1,39.720001220703125,0,0,155.59999084472656,-86.9099061,40.4245665,9.862303131992377,2.412595374202265,0.3498690038178008,0.1840492505761026,-0.012306789,0.11561339840437602,0.9757190612913336,-0.068104133,-0.222923041,-0.380502439,0.085511204,0.001242451,-0.044004724,Garage
4,-3.20E-04,-0.051621041,0.013852296277849022,-55.77777778,-128.012524,38.64154727935791,11.091995763778687,-111.99246,30.60150339126587,-35.04803722,0.001907631,-0.412913326,-0.264282596,9.678441992,1.5840195500951948,0.4799932547595162,45,1.5,1,39.720001220703125,0,0,155.59999084472656,-86.9099061,40.4245665,9.678441992,1.5840195500951948,0.4799932547595162,0.19381332860409634,-0.017976255,0.10545590874350187,0.974713462,-0.076926384,-0.199906496,-0.400190498,0.021212116,-0.063685274,0.013035363250963607,Garage
5,0.1317198137895992,0.1438912386746289,-0.111817354,-47.25,-127.8556321,38.65252735,9.579683799743652,-111.835812,30.612727279663087,-36.56010548,-0.127139046,-0.090174992,-0.234704866,9.535528914,1.9759865509508883,0.6655037979371009,45,1.5,1.5128180980682373,48.965999603271484,1.3548481464385986,88.46840668,155,-86.9096182,40.4245724,9.535528914,1.9759865509508883,0.6655037979371009,0.20500685546833736,-0.024006157,0.11210949088518436,0.9705061161747346,-0.092990928,-0.210289711,-0.426522513,0.15327420524017027,0.13179029759395725,-0.112607342,Garage
6,0.009548196,0.027104123,0.060573214,-43.88888889,-130.0256458,45.75756320953369,14.183963737487794,-114.0061919,37.71751922607422,-31.95582531,0.004790741,-0.189787552,-0.085308303,9.841092962,1.2606516436863582,0.13740726257448346,45,1.5,1.5128180980682373,48.965999603271484,1.3548481464385986,88.46840668,155,-86.9096182,40.4245724,9.841092962,1.2606516436863582,0.13740726257448346,0.2620055457052675,0.008227377,0.07358845,0.9618822411426062,-0.022593485,-0.146354557,-0.533399649,0.031080560015008144,0.015036925245121627,0.059768142,Garage
7,-0.116582869,-0.050418621,-0.015096229,-40.22222222,-129.2615602,48.17840915679932,14.911449708938598,-113.2413737,40.13836517333984,-31.22833931,0.1436792808829002,-0.215145486,0.043156497,10.001490449442446,0.9553141131888605,0.3969878673788558,45,1.5,1.5128180980682373,48.965999603271484,1.3548481464385986,88.46840668,155,-86.9096182,40.4245724,10.001490449442446,0.9553141131888605,0.3969878673788558,0.2568082987394148,-0.002098771,0.061711747,0.9642227807091278,-0.035865374,-0.118064213,-0.522613255,-0.095044571,-0.062499163,-0.015905753,Garage
8,-0.039580531,0.019601970056560145,-0.047488925,-43.375,-127.9428616,47.21582924,13.19295771598816,-111.9231638,39.17566322,-32.94670929,0.025048913,-0.072489014,-0.180849542,9.870210471662503,0.9333634472913245,0.45602146998156334,45,1.5,1.5128180980682373,48.965999603271484,1.3548481464385986,88.46840668,155,-86.9096182,40.4245724,9.870210471662503,0.9333634472913245,0.45602146998156334,0.22893346021476302,-0.019888324,0.056864879519036675,0.9711810153664895,-0.064583084,-0.101569701,-0.466285257,-0.018045198,0.007528842,-0.048298448,Garage
9,-0.040648029,0.009090059,0.036910297012847204,-38.66666667,-128.3228911,45.33824924468994,13.009713773727418,-112.3027061,37.29832717895508,-33.1301973,0.17740323705580627,-0.279736267,-0.204706963,10.032498478889465,0.7911471204279223,0.4118789769171809,45,1.5,1.5128180980682373,48.965999603271484,1.3548481464385986,88.46840668,155,-86.9096182,40.4245724,10.032498478889465,0.7911471204279223,0.4118789769171809,0.24572597993809042,-0.016133702,0.060211057,0.9671424337961141,-0.061085884,-0.108642747,-0.500831594,-0.019115664,-0.002980105,0.036093362733649395,Garage
10,0.080335311,2.609454366622619E-4,0.022125421,-46,-128.8555441,45.52942295074463,12.677385749816894,-112.8356015,37.48950141906738,-33.46252533,0.043402241,-0.097567449,0.062753628,9.869008295744369,1.0333828581497073,0.5832272818655644,45,1.5,1.542819857597351,46.69900131225586,1.7660644054412842,99.70391082763672,155.59999084472656,-86.9094923,40.4245453,9.869008295744369,1.0333828581497073,0.5832272818655644,0.27265391346899054,-0.009832424,0.061674992,0.9592129009441265,-0.052535992,-0.112844788,-0.556777345,0.10187805540751195,-0.011804771,0.021326279566053628,Garage
11,0.031123556522200408,0.007104806,-0.054408403,-43,-126.7315237,45.10754684448242,11.457019729614258,-110.7121918,37.06762531280518,-34.68313534,-0.025989468,-0.067179959,-0.173118173,9.819827607534464,0.8911173537518214,0.5909836341274305,45,1.5,1.542819857597351,46.69900131225586,1.7660644054412842,99.70391082763672,155.59999084472656,-86.9094923,40.4245453,9.819827607534464,0.8911173537518214,0.5909836341274305,0.27833891710610065,-0.024008829,0.057478157,0.9579324485028832,-0.078023692,-0.096718984,-0.569221423,0.052661854,-0.004960911,-0.055201614,Garage
12,0.057704309932887554,0.041177332,0.022109114,-43.625,-127.8847897,48.72557907104492,12.252825736999512,-111.8652139,40.685657272338865,-33.88708534,0.032862011,0.043388692824875265,0.012089159592841436,9.924713944925845,0.4285940239658055,0.7894630500757434,45,1.5,1.542819857597351,46.69900131225586,1.7660644054412842,99.70391082763672,155.59999084472656,-86.9094923,40.4245453,9.924713944925845,0.4285940239658055,0.7894630500757434,0.32196078196312616,-0.030610267,0.031497207099517574,0.9451223,-0.077890119,-0.039485142,-0.657990421,0.079238158,0.029104201956109587,0.021302554919158372,Garage
13,-0.03067158,-0.002289208,-0.009939483,-40.44444444,-129.6852655,51.57257102966309,14.189941768646241,-113.6649583,43.532649002075196,-31.95009134,0.013002281005565938,-0.084291502,0.081522173,9.924263889,0.11792492041888747,0.7213953713642307,45,1.5,1.542819857597351,46.69900131225586,1.7660644054412842,99.70391082763672,155.59999084472656,-86.9094923,40.4245453,9.924263889,0.11792492041888747,0.7213953713642307,0.34821416494938046,-0.027442268,0.021577056900591394,0.936246351,-0.065826858,-0.021058107,-0.712527592,-0.00913481,-0.014354911,-0.010748561,Garage
14,0.054679726,0.016568490760672152,-0.005733365,-48.25,-129.1391937,52.231127166748045,15.271837692260743,-113.1198619,44.191083106994625,-30.8681953,-0.047333217,0.017896276,-0.041636607,9.853817874945483,0.43614999779943125,0.5749366237076668,45,1.5,1.542819857597351,46.69900131225586,1.7660644054412842,99.70391082763672,155.59999084472656,-86.9094923,40.4245453,9.853817874945483,0.43614999779943125,0.5749366237076668,0.3567874214602906,-0.02163139,0.031006586095951135,0.9325500639896949,-0.062170386,-0.042146995,-0.732047304,0.076220988,0.004492396,-0.006547335,Garage
15,0.062081059,0.004840817,0.015678907284011286,-46,-129.0007233,52.94006908416748,16.143161716461183,-112.9807822,44.89990314483643,-29.99711546,-0.058321624,-0.10617707,-0.143200086,9.841522693634033,0.41978937286196405,0.5550854901774126,45,1.5,1.133328914642334,38.52399826049805,1.4837216138839722,75.02288818359375,155,-86.9094248,40.4245889,9.841522693634033,0.41978937286196405,0.5550854901774126,0.38780932779451016,-0.022275037,0.038222005,0.9200428868960409,-0.070411138,-0.05295152,-0.799640209,0.083619356,-0.007226383,0.014885694,Garage
16,0.047551196,0.011539379736064996,-0.022322613,-46.55555556,-128.3156936,55.759122886657714,17.251897735595705,-112.2955077,47.718957138061526,-28.88776953,0.12083205898988594,0.040202121,-0.074388585,9.991029643095457,0.26491020250922215,0.6350873398478143,45,1.5,1.133328914642334,38.52399826049805,1.4837216138839722,75.02288818359375,155,-86.9094248,40.4245889,9.991029643095457,0.26491020250922215,0.6350873398478143,0.421547731,-0.027967935,0.025499684175530685,0.9056319785349577,-0.071758128,-0.022439064,-0.871977304,0.069088012,-5.25E-04,-0.023117307,Garage
17,-0.038228364,-0.020106067,1.2898996237267567E-4,-49.25,-127.4819456,57.490424995422366,18.474703636169433,-111.4620039,49.450625,-27.66545149,0.11420829087785146,-0.031904165,-0.09486856,10.04160222729433,-0.03448975,0.5986412483475452,45,1.5,1.133328914642334,38.52399826049805,1.4837216138839722,75.02288818359375,155,-86.9094248,40.4245889,10.04160222729433,-0.03448975,0.5986412483475452,0.4448412474498008,-0.030994685,0.015498046,0.8946187999642011,-0.068993468,3.320307672041857E-5,-0.922785177,-0.016695998,-0.032170301,-6.64E-04,Garage
18,0.12305903451028959,-0.001289896,0.020037866,-45.44444444,-128.2078461,54.84021881103516,18.501543636322022,-112.1869278,46.80041900634765,-27.63836742,-0.080799543,-0.055664864,-0.26048584,9.819949571368763,0.34046033230944744,0.5433653004612159,45,1.5,1.133328914642334,38.52399826049805,1.4837216138839722,75.02288818359375,155,-86.9094248,40.4245889,9.819949571368763,0.34046033230944744,0.5433653004612159,0.45321910792184106,-0.026500308,0.036354841429342345,0.8894633685500877,-0.079851717,-0.040577854,-0.944126993,0.14459733103483335,-0.013358577,0.019238724187920685,Garage
19,0.075389227,0.019452224087729616,-0.01685464,-44.375,-129.143098,55.53500900268555,20.77574556350708,-113.1229118,47.49484313964844,-25.3637995,0.029423236846923828,-0.03066338,-0.109015378,9.947823330036645,0.44891850475122413,0.6152051590059238,45,1.5,1.133328914642334,38.52399826049805,1.4837216138839722,75.02288818359375,155,-86.9094248,40.4245889,9.947823330036645,0.44891850475122413,0.6152051590059238,0.5079267372205419,-0.018545705,0.040019073026272854,0.8597654735000388,-0.072267957,-0.049689515,-1.068909804,0.096926041,0.007374645,-0.017649335,Garage
20,-0.001080729,0.022288583770345073,-0.071930201,-42.88888889,-129.6415895,57.19189117,21.688305587768554,-113.6214037,49.15184700012207,-24.45172764,-0.150020306,0.062972634,-0.029225996,9.72430637,0.4124657070643983,0.5316915830181351,45,1.5,1,28.194000244140625,0.9131794571876526,104.6831055,155,-86.9093942,40.4245603,9.72430637,0.4124657070643983,0.5316915830181351,0.5308484343382028,-0.016476221,0.029711178,0.8464863867713854,-0.059311544,-0.032963745,-1.121202005,0.020451636268542364,0.010219944,-0.07271432,Garage
21,0.065627532,0.040339642,0.032210331575750616,-45.375,-129.1135735,60.62960697174072,23.45815963745117,-113.0941199,52.58980697631836,-22.68162958,-0.120397225,0.044128761,0.2324156377428365,9.802134097201153,-0.128791359,0.5459962444723521,45,1.5,1,28.194000244140625,0.9131794571876526,104.6831055,155,-86.9093942,40.4245603,9.802134097201153,-0.128791359,0.5459962444723521,0.5611912764391853,-0.017994015,0.001772715,0.8268439769744873,-0.031556644,0.017367755,-1.192247289,0.087164345,0.028262064,0.031408224232241655,Garage
22,-0.001269138,-0.005963174,0.021879303,-47.11111111,-129.5944972,59.463530960083006,23.02896354675293,-113.5741905,51.42373085021973,-23.1108256,0.010045954324666736,-0.04177366,-0.164806685,9.926761242949848,-0.117158288,0.39433078019364365,45,1.5,1,28.194000244140625,0.9131794571876526,104.6831055,155,-86.9093942,40.4245603,9.926761242949848,-0.117158288,0.39433078019364365,0.5659763639413037,-0.025240759,0.012952519945791262,0.8236488462651818,-0.056317532,0.007585759,-1.203911883,0.020263227188815045,-0.018031855,0.021089056,Garage
23,0.002965277,0.025671895,0.011112379631280754,-45.75,-129.2692464,59.24661483764648,23.863321552276613,-113.2494257,51.206693153381345,-22.27695553,0.080966357,0.004839904,0.022467647652024206,9.994393302398977,-0.053643946,0.5633645358594875,45,1.5,1,28.194000244140625,0.9131794571876526,104.6831055,155,-86.9093942,40.4245603,9.994393302398977,-0.053643946,0.5633645358594875,0.5817987733674281,-0.023874955,0.013496924,0.8126395906059487,-0.054508311,0.005897867,-1.24257489,0.024497643599142003,0.013601730130070332,0.010307306717647222,Garage
24,-0.071617393,-0.004751858,-0.026637091,-45,-129.1882381,57.425277137756346,24.026069583892824,-113.1671973,49.38547679901123,-22.11396364,-0.15238392,0.031746102406561956,0.19089675123251756,9.777363818425398,0.2707772209866492,0.6716842964255753,45,1.5,1,28.194000244140625,0.9131794571876526,104.6831055,155,-86.9093942,40.4245603,9.777363818425398,0.2707772209866492,0.6716842964255753,0.5649221012893232,-0.012762657,0.023459900043977116,0.8243958070440199,-0.047536743,-0.024133098,-1.201936459,-0.050085027,-0.016822023,-0.027422891,Garage
25,-0.046851392,0.032417901,0.065624567,-43.55555556,-128.9846193,58.09310485839844,24.026313495635986,-112.9646774,50.05306098937988,-22.11359749,0.030116724736482196,-0.011534195,0.11257108394960755,9.96004294,0.29350118805627223,0.5828643027891957,45,1.5,1.6089320182800293,50.50400161743164,2.596010923,12.143216133117676,155.59999084472656,-86.9093723,40.4247498,9.96004294,0.29350118805627223,0.5828643027891957,0.5621850542651797,-0.011975428,0.025997702242553378,0.8261989146760367,-0.049380888,-0.029367143,-1.195729245,-0.02531606,0.020350703,0.064820978,Garage
26,-0.026770529,-0.022307785,-0.005966138,-39.125,-129.8522844,55.64236888885498,24.42525358200073,-113.8318538,47.60232521057129,-21.71477955,-0.010931723,-0.068806526,-0.087157452,9.868714939,0.5681472784993284,0.45217088191940685,45,1.5,1.6089320182800293,50.50400161743164,2.596010923,12.143216133117676,155.59999084472656,-86.9093723,40.4247498,9.868714939,0.5681472784993284,0.45217088191940685,0.5541056180463254,-0.004562443,0.041732937423060244,0.8310428423788941,-0.053656842,-0.064001922,-1.177699152,-0.005238164,-0.034376468,-0.006772695,Garage
27,-0.030824293,0.029449886042409792,-0.014717601,-44,-131.5064819,58.52925476074219,24.787471504211425,-115.485808,50.48933296203613,-21.3528055,-0.075844201,-0.034708849,-0.023648477,9.813743901484221,0.34039063519771096,0.6305203833591839,45,1.5,1.6089320182800293,50.50400161743164,2.596010923,12.143216133117676,155.59999084472656,-86.9093723,40.4247498,9.813743901484221,0.34039063519771096,0.6305203833591839,0.5521341281441542,-0.016526086,0.034542798,0.8326922053327928,-0.065703106,-0.039185387,-1.172287222,-0.009291927,0.017385652728710108,-0.015506124,Garage
28,0.027707557691243088,0.023529479949219712,-0.024583637,-37,-129.7635898,58.218154945373534,26.57184358596802,-113.7440141,50.17823314666748,-19.56843355,-0.041736445,0.07116669,-0.030216974,9.866804220144031,0.3096004659038724,0.23553912088419626,45,1.5,1.6089320182800293,50.50400161743164,2.596010923,12.143216133117676,155.59999084472656,-86.9093723,40.4247498,9.866804220144031,0.3096004659038724,0.23553912088419626,0.5678409841454145,-0.004198899,0.017671896114231096,0.8226042893326398,-0.026790726,-0.024079373,-1.208611797,0.049239923,0.011454868989372716,-0.02538278,Garage
29,-0.038180919,0.029697259,0.030388168951053427,-47,-130.2173083,57.175054779052736,27.33373338699341,-114.1974878,49.135255126953126,-18.80617758,-0.012241012,-0.031950729,0.059243728397685345,9.903222107192844,0.3873323607168079,0.1865356276444729,45,1.5,1.6089320182800293,50.50400161743164,2.596010923,12.143216133117676,155.59999084472656,-86.9093723,40.4247498,9.903222107192844,0.3873323607168079,0.1865356276444729,0.5799399313417454,0.007037138,0.021014392,0.8141197730036616,-0.012825713,-0.04229443,-1.238018734,-0.016648553,0.017622647,0.029581612107136005,Garage
30,-0.074665699,-0.028938147,-0.022934943,-43.5,-128.4821014,58.889764862060545,24.77575949,-112.4617938,50.849842948913576,-21.36439562,0.062760436,-0.092717849,-0.09103272,9.982949016,0.1154595042027316,0.3011442801408759,45,1.5,1.8399139642715454,95.22699737548828,3.5567994117736816,11.725547790527344,156.09999084472656,-86.9093196,40.4249466,9.982949016,0.1154595042027316,0.3011442801408759,0.564746335,-0.010401013,0.019907092413349637,0.8247667776728139,-0.039498051,-0.021018981,-1.201119821,-0.053133332,-0.041006829,-0.023745946,Garage
31,-0.067786254,0.022777782047836526,-0.013426778,-43.77777778,-128.2577441,56.99303108215332,21.939747581481935,-112.2375581,48.952987060546874,-24.20028547,-0.113089862,-0.087427846,0.022352225861503084,9.819790372481712,0.18589815934403583,0.5112300080856165,45,1.5,1.8399139642715454,95.22699737548828,3.5567994117736816,11.725547790527344,156.09999084472656,-86.9093196,40.4249466,9.819790372481712,0.18589815934403583,0.5112300080856165,0.5362666712223905,-0.01336199,0.024867328173182542,0.8434599782656698,-0.049178289,-0.027498097,-1.133291258,-0.046253888,0.010707618675456897,-0.014221472,Garage
32,-0.088211089,0.009807657,-0.01432674,-47,-126.8070416,61.04721305847168,18.868641567230224,-110.7868559,53.00716869354248,-27.2712694,0.006320199,-0.029605104,-0.047081245,9.906416439315647,-0.011993156,0.3905063320756031,45,1.5,1.8399139642715454,95.22699737548828,3.5567994117736816,11.725547790527344,156.09999084472656,-86.9093196,40.4249466,9.906416439315647,-0.011993156,0.3905063320756031,0.5122720321405281,-0.018302584,0.011999628,0.858409457,-0.043746827,-0.001738209,-1.076059668,-0.066678723,-0.002256576,-0.015111056,Garage
33,-0.248490293,-0.011305122,-0.003587987,-39.75,-125.7566215,59.58394504547119,18.398941688537597,-109.7365578,51.543900909423826,-27.74096951,0.059634797,-0.067087018,0.061150715,9.96113186,0.3005954417054207,0.48171236933869066,45,1.5,1.8399139642715454,95.22699737548828,3.5567994117736816,11.725547790527344,156.09999084472656,-86.9093196,40.4249466,9.96113186,0.3005954417054207,0.48171236933869066,0.4556359214690125,-0.010964731,0.025912379384836527,0.8890835017833895,-0.043493297,-0.036195969,-0.947739375,-0.226957927,-0.023369355,-0.004388611,Garage
34,-0.438647637,0.056058579911161394,0.027015166,-42,-122.8798616,60.80418899536133,14.894247732162476,-106.8600421,52.76438907623291,-31.24554138,0.08359529,-0.097833883,0.5216428080519426,9.975947667,0.3015334034899195,1.0092542610149289,45,1.5,1.8399139642715454,95.22699737548828,3.5567994117736816,11.725547790527344,156.09999084472656,-86.9093196,40.4249466,9.975947667,0.3015334034899195,1.0092542610149289,0.29906475153362866,-0.01665677,0.027211077023044372,0.9514119480420085,-0.047853613,-0.041180589,-0.6101287,-0.417115272,0.043989899,0.026213057,Garage
35,0.082264679,0.1413450627319085,0.007011529,-39.875,-118.0776979,72.17934692382812,4.251455909758806,-102.0578783,64.13942481994629,-41.88869904,0.030910634,-0.409181937,0.18678983881209904,9.910301889030679,0.32518866301957267,-0.120070908,45,1.5,4.359129428863525,28.312000274658203,3.7927279472351074,21.593061447143555,154.1999969482422,-86.909184,40.4251099,9.910301889030679,0.32518866301957267,-0.120070908,0.22591630512705216,0.022597567,0.032086006,0.9723311914847448,0.029799472541736368,-0.07412339,-0.45553069,0.10380585619042484,0.12925293029379994,0.006225943,Garage
36,-0.335859243,-0.130165324,0.021034199,-43.22222222,-105.6583421,32.11601137161255,9.189527853131294,-98.43667419,30.573321285247804,-31.7634314,0.007558105,-0.669797399,-0.584669861,9.873915885258647,0.054756145,-1.168391485,45,1.5,4.359129428863525,28.312000274658203,3.7927279472351074,21.593061447143555,154.1999969482422,-86.909184,40.4251099,9.873915885258647,0.054756145,-1.168391485,0.2114176917278651,0.03660174,0.027929875565674698,0.9733612479515446,0.059200559,-0.073131002,-0.425435121,-0.314326877,-0.142229557,0.020235057052188705,Garage
37,-0.104104978,0.025132213429846232,-0.0059439,-66.625,-48.34518326,-22.16276358,-17.38451172,-100.0040079,19.77802958,-23.62444546,-0.05312577,-0.051646002,-0.156722546,9.916696256804235,0.2890494914399912,-0.169721983,45,1.5,4.359129428863525,28.312000274658203,3.7927279472351074,21.593061447143555,154.1999969482422,-86.909184,40.4251099,9.916696256804235,0.2890494914399912,-0.169721983,0.0019563,4.63049188855294E-4,0.017349491135479466,0.9974202554202775,0.001255826,-0.034109423,-0.003820214,-0.082572613,0.013067980068600148,-0.00672525,Garage
38,-0.050338559,0.046388807774914734,-0.013487566,-65.55555556,-56.59201687,-17.97669967,-18.17909767,-108.2515738,23.963117485046386,-24.41927555,-0.166254238,0.36081393540484236,-0.255803187,9.792505846573757,0.9334136515748329,-0.666890024,45,1.5,4.359129428863525,28.312000274658203,3.7927279472351074,21.593061447143555,154.1999969482422,-86.909184,40.4251099,9.792505846573757,0.9334136515748329,-0.666890024,-0.34418121,0.008534134,0.034721756,0.9323927899008816,0.041717465,-0.05831231,0.7084022528916887,-0.028806191,0.034323092210965536,-0.014268918,Garage
39,-0.133508675,0.013878983,0.070954654,-81.11111111,-65.1497068,-1.559647988,-17.68231369,-117.2600536,40.07773134231567,-25.35269756,-0.210420201,0.085462502,-0.018296528,9.740669848,0.5206334965237986,-0.544009965,45,1.5,4.359129428863525,28.312000274658203,3.7927279472351074,21.593061447143555,154.1999969482422,-86.909184,40.4251099,9.740669848,0.5206334965237986,-0.544009965,-0.576409624,0.008362314,0.031950928948964306,0.8148017652983804,0.051657076,-0.042280468,1.2325107542056482,-0.111976308,0.001811786,0.070158476,Garage
40,0.49484558468594136,0.1612295761966662,-0.036806513,-81.75,-58.07687878,43.38393103599548,-16.89931783,-118.7366199,79.26388694763183,-51.75971899,0.040246824616367374,0.23600976617590894,-0.213960359,9.875245844276206,1.2248260928589163,-1.257933584,45,1.5,3.3353466987609863,40.32500076293945,2.9774234294891357,20.059762954711914,156.09999084472656,-86.9091383,40.4252137,9.875245844276206,1.2248260928589163,-1.257933584,-0.435608732,0.027047775,0.066591079,0.892159302,0.10518164918260667,-0.100429302,0.9143338799476624,0.5164179848235788,0.14913865471783194,-0.037599725,Garage
41,0.13595206388136716,0.071537331,-0.01351722,-77.55555556,-43.75529926,21.912541675567628,-17.84567174,-104.4151623,57.792496871948245,-52.705951,0.114413298,-0.188333337,-0.037681762,9.794856904779824,1.250284677570306,-1.771702225,45,1.5,3.3353466987609863,40.32500076293945,2.9774234294891357,20.059762954711914,156.09999084472656,-86.9091383,40.4252137,9.794856904779824,1.250284677570306,-1.771702225,-0.27529077,0.06461624,0.093882326,0.9543709263060857,0.17786299386649457,-0.144331917,0.5747406754678893,0.15748442964429415,0.059468650200304764,-0.01429264,Garage
42,0.08930117,-0.041420143,8.369781067953086E-4,-66.5,-41.11814716,27.509901523590088,-13.59201973,-101.7788644,63.38949104309082,-48.45254311,-0.041879049,0.10170108824968338,0.005527595,9.642175063346196,1.5095923114748835,-1.530912833,45,1.5,3.3353466987609863,40.32500076293945,2.9774234294891357,20.059762954711914,156.09999084472656,-86.9091383,40.4252137,9.642175063346196,1.5095923114748835,-1.530912833,-0.228627379,0.059388520590101294,0.087654046,0.9674886585428164,0.15723587694362953,-0.142517539,0.47534942483672726,0.11083353669248307,-0.053484376,5.8735308882135614E-5,Garage
43,-0.215955264,-0.308070142,-0.259931819,-70.66666667,-23.56869152,29.749943504333498,-22.08809959,-84.22806633,65.62989864349365,-56.94825684,0.013605886292689055,0.064315629,-0.041698407,9.763959273551274,0.11225939001345518,0.5994078837407445,45,1.5,3.3353466987609863,40.32500076293945,2.9774234294891357,20.059762954711914,156.09999084472656,-86.9091383,40.4252137,9.763959273551274,0.11225939001345518,0.5994078837407445,-0.272352728,-0.029347148,-0.008452338,0.9578965028512825,-0.065166657,-0.005049135,0.5588414805028045,-0.194422897,-0.320134372,-0.260695376,Garage
44,-0.128147453,0.2819845901567091,0.15950674914531138,-75.5,-16.50001164,27.768419456481933,-25.20556559,-77.15987442,63.64825305938721,-60.06535675,-0.082816462,0.15151743265320955,0.10290382061045146,9.678090623281534,0.3082211099076763,1.1551554516970532,45,1.5,3.3353466987609863,40.32500076293945,2.9774234294891357,20.059762954711914,156.09999084472656,-86.9091383,40.4252137,9.678090623281534,0.3082211099076763,1.1551554516970532,-0.340099462,-0.053471443,-0.010439036,0.937148009,-0.107076774,-0.016024217,0.6979734353648807,-0.106615086,0.2698729120565633,0.1586898144795695,Garage
45,1.8977778918534806E-4,-0.04727246,0.015718938633618715,-76.55555556,-18.98112561,28.934007415771486,-19.42520573,-79.64111031,64.81384071350098,-54.28524113,0.07847436,-0.166130276,-0.181021595,9.918055312147418,0.6360929879423195,-0.674453651,45,1.5,3.222571373,39.38399887084961,1.8326358795166016,43.63294219970703,156.09999084472656,-86.9090499,40.4252124,9.918055312147418,0.6360929879423195,-0.674453651,-0.347407377,0.009331772,0.046853346,0.9360866164698184,0.050100231,-0.081162112,0.7124163716742136,0.021722143777031272,-0.059344107,0.014933139433885374,Garage
46,-0.073467726,0.081342023,-0.020291398,-64.75,-18.78763368,27.725963478088378,-19.26977751,-79.44847252,63.60604080200196,-54.12883701,0.11347570697080742,0.060230409,-0.123260325,9.990359489734356,0.5924766886074884,-0.526970293,45,1.5,3.222571373,39.38399887084961,1.8326358795166016,43.63294219970703,156.09999084472656,-86.9090499,40.4252124,9.990359489734356,0.5924766886074884,-0.526970293,-0.349988693,0.009032167,0.031857203900163035,0.9359574231129248,0.039276179471573094,-0.053321905,0.7169196727206406,-0.05193536,0.06927779,-0.021077197,Garage
47,-0.292625492,-0.017757566,0.054615972,-50.33333333,-21.07537762,17.865923643112183,-20.12341156,-81.73548447,53.74600078582764,-54.98369102,0.073305986,-0.044109507,-0.166286824,9.947486391345274,0.32655931070663974,-0.782728878,45,1.5,3.222571373,39.38399887084961,1.8326358795166016,43.63294219970703,156.09999084472656,-86.9090499,40.4252124,9.947486391345274,0.32655931070663974,-0.782728878,-0.413874987,0.021751810889239016,0.029651974730936188,0.9075198370276145,0.064068395,-0.03742267,0.8570505785710604,-0.271093122,-0.029845521,0.053802003758480245,Garage
48,-0.054857644,-0.04915245,-0.146850941,-36,-18.81910964,-3.810547921,-20.44512565,-79.4794606,32.06940742492676,-55.30601494,-0.192433302,-0.014501296,0.35213002114041336,9.610621146785403,0.6025179641443368,0.056823724573387684,45,1.5,3.222571373,39.38399887084961,1.8326358795166016,43.63294219970703,156.09999084472656,-86.9090499,40.4252124,9.610621146785403,0.6025179641443368,0.056823724573387684,-0.473439438,-0.001921672,0.034992278,0.8773987698323519,0.030800592832411957,-0.063063961,0.9949230430195632,-0.033320828,-0.061246333,-0.147657501,Garage
49,-0.031482128,0.14867376308225524,-0.116624838,-50.5,-17.75661171,-8.846463819,-12.13741374,-78.41708427,27.033491439819336,-46.99781517,0.1479220986366272,0.084590531,-0.060827737,9.962987543309776,-0.802077629,-0.778605323,45,1.5,3.222571373,39.38399887084961,1.8326358795166016,43.63294219970703,156.09999084472656,-86.9090499,40.4252124,9.962987543309776,-0.802077629,-0.778605323,-0.51125794,0.053444325,-0.019681642,0.8568525646741574,0.072511602,0.088345536,1.0719174536374898,-0.009949763,0.13658309658057988,-0.117400145,Garage
50,0.18160548377601268,-0.024095847,0.094912617,-45,-12.22915774,-5.041283912,-3.621081922,-72.88938622,30.838671226501464,-38.48099529,-0.332654819,0.14958552914915732,-0.11088689,9.410071238730717,-1.325827023,-0.679581962,45,1.5,3.222571373,39.38399887084961,1.8326358795166016,43.63294219970703,156.09999084472656,-86.9090499,40.4252124,9.410071238730717,-1.325827023,-0.679581962,-0.511576791,0.06348302,-0.049402108,0.8548117714020812,0.058222922,0.1499171049053808,1.0745566822950123,0.20315415834899522,-0.036179357,0.0940942,Garage
51,0.40643285461746664,0.11854143534816386,0.058359637,-46.875,-9.10620182,13.151111685037613,-1.835367954,-69.76545471,49.03118923187256,-36.69576916,0.26452428391836225,-0.289553872,-0.142626404,10.064389224191315,0.001710397,-1.381634382,45,1.5,5.140969276428223,43.68600082397461,1.543527603149414,27.94832420349121,159.29998779296875,-86.9090473,40.4252778,10.064389224191315,0.001710397,-1.381634382,-0.281189711,0.055450373,0.030874016382776707,0.9547680315462131,0.12531434357600305,-0.029581368,0.5738146854835806,0.42801415083649597,0.10643865417200819,0.057541217103383495,Garage
52,-0.131231341,0.007511049,0.059714767,-67.22222222,-8.743739834,20.733167667388916,0.017446004059165715,-69.40421295,56.61324489593506,-34.84246731,0.16968738222585142,0.057791505479118196,0.10170530809939486,9.983372966062676,-0.01525134,-1.323207688,45,1.5,5.140969276428223,43.68600082397461,1.543527603149414,27.94832420349121,159.29998779296875,-86.9090473,40.4252778,9.983372966062676,-0.01525134,-1.323207688,-0.271214646,0.070244065,0.015930356800859087,0.959195113,0.14418515751084077,0.007419271,0.5508063461595368,-0.109698976,-0.004569493,0.05889042,Garage
53,-0.313418019,0.02999527,-0.020319567,-64.625,-13.04753373,22.521687564849852,-1.994455953,-73.70715309,58.40152084350586,-36.85449123,-0.167628112,-0.125153458,-0.138315642,9.519269723158617,0.4245333266086303,-2.233029836,45,1.5,5.140969276428223,43.68600082397461,1.543527603149414,27.94832420349121,159.29998779296875,-86.9090473,40.4252778,9.519269723158617,0.4245333266086303,-2.233029836,-0.34178364,0.090093325,0.063140289,0.9323351579962424,0.21238422061054452,-0.055775605,0.7085605205841434,-0.291885653,0.017931035665560115,-0.021089057,Garage
54,-0.086004922,-0.084701682,0.010123457789005152,-67.11111111,-12.15058977,18.394915533065795,-7.539355893,-72.81057442,54.27499302,-42.39902512,-0.020092534,0.011824488278152873,-0.037034994,9.771735922804156,0.15197327605096025,-1.573368003,45,1.5,5.140969276428223,43.68600082397461,1.543527603149414,27.94832420349121,159.29998779296875,-86.9090473,40.4252778,9.771735922804156,0.15197327605096025,-1.573368003,-0.410438052,0.068584165,0.038800609,0.9082451914120646,0.15711539318260637,-0.014163313,0.849965391,-0.064472555,-0.096765915,0.009334694,Garage
55,0.043459113,-0.073175647,0.16255950332264352,-69.22222222,-11.86889175,17.141975622177124,-7.842891874,-72.52899834,53.022052993774416,-42.70268322,0.15072841088748673,0.057771483,0.3342601648233469,9.999286406248519,0.5392446476204357,-0.780719367,45,1.5,5.140969276428223,43.68600082397461,1.543527603149414,27.94832420349121,159.29998779296875,-86.9090473,40.4252778,9.999286406248519,0.5392446476204357,-0.780719367,-0.396063417,0.043015283,0.043266108548901616,0.9155433218456009,0.11292143292652751,-0.044929806,0.8185168689894444,0.064992962,-0.085248776,0.16175591528361427,Garage
56,-0.072882091,0.12648541549021758,-0.01671972,-52.125,-15.65381973,22.795821561813355,-10.18431584,-76.31380447,58.67577674865723,-45.04520535,-0.35864768,-0.088052385,-0.562899068,9.303439668081339,2.0122912338238605,-1.294386372,45,1.5,5.464472770690918,29.694000244140625,0.1588016301393509,348.8519287109375,158,-86.9091231,40.4251947,9.303439668081339,2.0122912338238605,-1.294386372,-0.357493987,-0.003730192,0.11532811126084004,0.9250026281597545,0.075106742,-0.216890188,0.7437523371964982,-0.051337855,0.11435001211475979,-0.017512934,Garage
57,-0.039411395,0.016949541445893165,-0.136376055,-63.22222222,-5.284307894,6.057299875002355,-25.34464548,-65.94392685,41.93725524902344,-60.20407097,-0.142997934,-0.278114194,-0.104669554,9.410350035695197,1.221779893471145,-2.221033075,45,1.5,5.464472770690918,29.694000244140625,0.1588016301393509,348.8519287109375,158,-86.9091231,40.4251947,9.410350035695197,1.221779893471145,-2.221033075,-0.419722977,0.064766454,0.11382328876509117,0.897659231,0.216464344,-0.150607962,0.8914891699185739,-0.017879028,0.004863284,-0.137167514,Garage
58,-0.091461034,-0.128030323,0.078682165,-53.625,7.326831866502761,-17.75063372,-34.22966154,-53.33327477,18.129443600177765,-69.08933067,0.2735892082881002,0.023911047799205318,-0.181139605,10.164530550391929,-0.138258108,-0.684820619,45,1.5,5.464472770690918,29.694000244140625,0.1588016301393509,348.8519287109375,158,-86.9091231,40.4251947,10.164530550391929,-0.138258108,-0.684820619,-0.443024753,0.026420362,0.003642299,0.8953771753218568,0.050959107,0.016354176384516656,0.9187089442049415,-0.069922735,-0.140106418,0.077890438,Garage
59,0.009050028,-0.043506558,0.023600649,-42.5,9.200385861,-34.42132343,-31.09792152,-51.45959904,1.4585099637508392,-65.95759079,-0.008246612,-0.018320424,-0.081738284,9.898128671553529,0.7217177057783436,-0.279501431,45,1.5,5.464472770690918,29.694000244140625,0.1588016301393509,348.8519287109375,158,-86.9091231,40.4251947,9.898128671553529,0.7217177057783436,-0.279501431,-0.498380054,-0.009831754,0.037219351700064046,0.8658568633412852,0.019954990395525632,-0.074511333,1.0453404315467019,0.030582393802141825,-0.055572274,0.022822261860286727,Garage
60,-0.03776578,0.031531283,0.046894388,-37.77777778,10.622783775329589,-32.18091534,-29.02709352,-50.03671303,3.699283926486969,-63.88676235,0.009615019,-0.050677737,-0.087414905,9.857068932973421,1.3566988053230138,-0.042800464,45,1.5,5.464472770690918,29.694000244140625,0.1588016301393509,348.8519287109375,158,-86.9091231,40.4251947,9.857068932973421,1.3566988053230138,-0.042800464,-0.529505976,-0.039692438,0.058745737,0.8451303243637085,-0.004676297,-0.141634738,1.1192112188894772,-0.016233414,0.01946112,0.046116002,Garage
61,-0.021219528,0.011657990460980285,9.058924020014848E-4,-67,10.64986777305603,-32.37233349,-28.4818755,-50.01023903,3.5074999380111693,-63.34117886,-0.006940888,-0.016694572,-0.031701128,9.794941087370937,1.6687324359578994,-0.230434047,45,1.5,2.833850622177124,36.31200027,0.2167525291442871,101.82731628417969,156.09999084472656,-86.9090883,40.4251788,9.794941087370937,1.6687324359578994,-0.230434047,-0.567930007,-0.04023223,0.075571615,0.8185296695209244,0.020264544,-0.170241624,1.214889835385443,3.1283682096948465E-4,-4.06E-04,1.4233334188901105E-4,Garage
62,-0.021136501,0.011657990497148153,0.001178698,-67.5,10.503589754104615,-32.57033909,-28.41611744,-50.15615128,3.309615957736969,-63.27651859,-0.017330086,-0.005004837,-0.009402279,9.759606278058394,1.666293158114535,-0.231944081,45,1.5,2.833850622177124,36.31200027,0.2167525291442871,101.82731628417969,156.09999084472656,-86.9090883,40.4251788,9.759606278058394,1.666293158114535,-0.231944081,-0.59863085,-0.041774038,0.0743434,0.7964050659855593,0.022801664,-0.169250181,1.2910678259377342,3.958646043031974E-4,-4.06E-04,4.151389138429489E-4,Garage
63,-0.021077195,0.011657990442896352,5.975035013567692E-4,-66.77777778,10.57874174118042,-32.63719528,-28.34023346,-50.08075531,3.2426379823684695,-63.19904869,-0.004248499,-0.003698436,-0.003451259,9.752799543362219,1.662808462254052,-0.233941972,45,1.5,2.833850622177124,36.31200027,0.2167525291442871,101.82731628417969,156.09999084472656,-86.9090883,40.4251788,9.752799543362219,1.662808462254052,-0.233941972,-0.626117888,-0.043988911,0.073027073,0.7749925753445301,0.023605671684140142,-0.16909495,1.3610817680081118,4.551701628584957E-4,-4.06E-04,-1.66E-04,Garage
64,-0.025996249,0.016704323486639902,0.016812983636135377,-57.25,11.603541784286499,-34.27211731,-29.04771145,-49.05656502,1.607715960815549,-63.90823452,0.010598861254178561,-5.10E-05,-0.015275809,9.758224038244451,1.6850698465861162,-0.257675635,45,1.5,2.833850622177124,36.31200027,0.2167525291442871,101.82731628417969,156.09999084472656,-86.9090883,40.4251788,9.758224038244451,1.6850698465861162,-0.257675635,-0.651595008,-0.046632835,0.072673624,0.753565425,0.024825711,-0.171138933,1.428049895625848,-0.004463884,0.00464009,0.016046487677018516,Garage
65,-0.02101789,0.011017490368227936,7.754201758924184E-4,-79.44444444,13.067419738769532,-36.36161106,-29.33001957,-47.59244293,-0.481899978,-64.19005455,0.051079278,0.016208126706984436,-0.005362021,9.776013411,1.8320774279751824,-0.28533539,45,1.5,2.833850622177124,36.31200027,0.2167525291442871,101.82731628417969,156.09999084472656,-86.9090883,40.4251788,9.776013411,1.8320774279751824,-0.28533539,-0.677240652,-0.052260914,0.077202037,0.7297736163278228,0.028787508,-0.18452741,1.4988219182468154,5.144757185881794E-4,-0.001046743,1.1861111824084254E-5,Garage
66,-0.021148362,0.011574962682732679,7.161146224232264E-4,-101.25,13.043385667800903,-36.37283524,-29.23912952,-47.61659912,-0.492635978,-64.09989677,0.004004719,0.00188937,-0.005403675,9.768132228,1.8282849267848487,-0.290184921,45,1.5,6.730648517608643,27.547000885009766,0.1121397539973259,48.85175323486328,156.59999084472656,-86.9090989,40.4251932,9.768132228,1.8282849267848487,-0.290184921,-0.699229039,-0.054576025,0.075811658,0.7087181100567568,0.029164877584547673,-0.184843282,1.5600206643632315,3.840034941744819E-4,-4.89E-04,-4.74E-05,Garage
67,-0.021041612,0.011491935,7.279757353775564E-4,-96.11111111,13.493565711975098,-37.18694134,-29.21497341,-47.16702911,-1.306741953,-64.07452099,-0.016110809,-8.00E-04,-0.004852665,9.731701759,1.8248953899511924,-0.292499561,45,1.5,6.730648517608643,27.547000885009766,0.1121397539973259,48.85175323486328,156.59999084472656,-86.9090989,40.4251932,9.731701759,1.8248953899511924,-0.292499561,-0.718985233,-0.056670599,0.074448542,0.6886525813815663,0.029512931439049036,-0.185095319,1.6166263413660735,4.907535005912401E-4,-5.72E-04,-3.56E-05,Garage
68,-0.021219528,0.011646129389845052,7.161146218581034E-4,-104.125,14.036953773498535,-38.05240929,-29.09712154,-46.62254311,-2.172453926,-63.95703468,-0.004809907,-2.66E-04,-0.002085511,9.723365524440135,1.8233134306750252,-0.28941829,45,1.5,6.730648517608643,27.547000885009766,0.1121397539973259,48.85175323486328,156.59999084472656,-86.9090989,40.4251932,9.723365524440135,1.8233134306750252,-0.28941829,-0.737569404,-0.058732513,0.072908103,0.6687051254568748,0.029511057346769908,-0.185214871,1.671397761233802,3.128368237950993E-4,-4.18E-04,-4.74E-05,Garage
69,-0.021077195,0.011646129389845052,6.923923993401808E-4,-102.1111111,13.694133758544922,-37.56404335,-29.13982138,-46.96585106,-1.684087952,-64.00010086,0.005226756,3.4327645903652156E-5,-0.003877587,9.732495446806972,1.8238245237220838,-0.291369717,45,1.5,6.730648517608643,27.547000885009766,0.1121397539973259,48.85175323486328,156.59999084472656,-86.9090989,40.4251932,9.732495446806972,1.8238245237220838,-0.291369717,-0.754602786,-0.060591282,0.071410694,0.6494247166855821,0.029586298083796085,-0.18526372,1.723089058422348,4.551701651189874E-4,-4.18E-04,-7.12E-05,Garage
70,-0.021029751,0.011657990479064219,7.516979584606021E-4,-103.3333333,13.079253711700439,-36.82850544,-29.29158951,-47.58024296,-0.948427959,-64.15186859,0.019270175,0.003231404,-0.003027123,9.772220981931223,1.8313746845837935,-0.2923222,45,1.5,6.730648517608643,27.547000885009766,0.1121397539973259,48.85175323486328,156.59999084472656,-86.9090989,40.4251932,9.772220981931223,1.8313746845837935,-0.2923222,-0.769696115,-0.062224034,0.069972347,0.6314722756737644,0.029641886,-0.185223709,1.7702112521940065,5.026146135455702E-4,-4.06E-04,-1.19E-05,Garage
71,-0.021450136,0.012181704,0.002713571,-58.625,15.850483655929565,-41.49207729,-31.01349747,-44.80901291,-5.611999879,-65.8732885,0.002068171,0.002579192,-0.010597834,9.773759999321502,1.8368166157053512,-0.299587784,45,1.5,2.8193013668060303,25.149999618530273,1.5171128511428833,196.59217834472656,155.59999084472656,-86.9091278,40.4251201,9.773759999321502,1.8368166157053512,-0.299587784,-0.784141834,-0.06394968,0.068553331,0.6134165129982508,0.029570785,-0.18546518,1.8166617762583952,8.222944933759909E-5,1.1747060992862456E-4,0.001950012,Garage
72,-0.021314418,0.011669851536636503,0.001676865,-28.22222222,13.945453720092774,-38.45940144,-29.18740147,-46.71440899,-2.57920198,-64.04694878,-0.018432617,-0.00337717,-0.001400716,9.730764666807305,1.8490449826694229,-0.295774947,45,1.5,2.8193013668060303,25.149999618530273,1.5171128511428833,196.59217834472656,155.59999084472656,-86.9091278,40.4251201,9.730764666807305,1.8490449826694229,-0.295774947,-0.79784313,-0.066205333,0.067981071,0.5953213954434812,0.030186994525703413,-0.187689402,1.8623519152113535,2.179479173348439E-4,-3.94E-04,9.133056240174377E-4,Garage
73,-0.021077195,0.011432629377011535,7.161146133812596E-4,-38.25,13.934961748123168,-38.27896343,-29.00696344,-46.72453522,-2.398885982,-63.86712051,-0.007182019,3.0093980066984603E-4,-0.003952928,9.716698128,1.853421183465754,-0.300522843,45,1.5,2.8193013668060303,25.149999618530273,1.5171128511428833,196.59217834472656,155.59999084472656,-86.9091278,40.4251201,9.716698128,1.853421183465754,-0.300522843,-0.809363829,-0.067661154,0.066950297,0.579516928,0.030497465174175002,-0.188237834,1.9016841106044435,4.551701645538645E-4,-6.32E-04,-4.74E-05,Garage
74,-0.021041612,0.011385184920673232,7.161146139463826E-4,-32.44444444,13.97985779762268,-38.26847141,-29.06552347,-46.68085888,-2.388393974,-63.92568047,0.002360057,-1.92E-04,-0.005233197,9.722343315198584,1.8536999561254262,-0.301870257,45,1.5,2.8193013668060303,25.149999618530273,1.5171128511428833,196.59217834472656,155.59999084472656,-86.9091278,40.4251201,9.722343315198584,1.8536999561254262,-0.301870257,-0.8198496,-0.068933831,0.065748651,0.5645757954097489,0.030516641268741738,-0.18838796,1.9383628055887314,4.907534988958714E-4,-6.79E-04,-4.74E-05,Garage
75,-0.021183945,0.011990101592054644,0.001071948,-27.875,13.905925741195679,-38.2865271,-28.96475147,-46.7533271,-2.406571984,-63.82515247,0.020013605506674758,0.002509575,-0.002795391,9.763026961913475,1.8606439324525685,-0.305018739,45,1.5,2.8193013668060303,25.149999618530273,1.5171128511428833,196.59217834472656,155.59999084472656,-86.9091278,40.4251201,9.763026961913475,1.8606439324525685,-0.305018739,-0.829367604,-0.06998495,0.064690006,0.5504945360341118,0.030801934958661643,-0.188426292,1.972539177218687,3.4842014626952487E-4,-7.41E-05,3.0838891194717396E-4,Garage
76,-0.021065334,0.011622407139070983,7.398368375945511E-4,-38.33333333,13.909097747802734,-38.29616535,-29.03416939,-46.75027683,-2.416087997,-63.89457066,0.001450965,0.001786557,-0.00473983,9.766389846801758,1.866244849649448,-0.30499777,45,1.5,7.289900302886963,27.229999542236328,0.6705966591835022,324.8401794433594,156.09999084472656,-86.9091502,40.425153,9.766389846801758,1.866244849649448,-0.30499777,-0.837988711,-0.071002258,0.063652078,0.5372731853457331,0.030937942,-0.188513584,2.004266015534262,4.670312752477029E-4,-4.42E-04,-2.37E-05,Garage
77,-0.021207667,0.011598684915422815,7.754201753272955E-4,-39.44444444,13.97351375579834,-38.34740517,-28.99866741,-46.68695915,-2.467571976,-63.85858074,-0.017204572,-0.002800384,-0.002581631,9.729730856071399,1.8586714487631344,-0.304913557,45,1.5,7.289900302886963,27.229999542236328,0.6705966591835022,324.8401794433594,156.09999084472656,-86.9091502,40.425153,9.729730856071399,1.8586714487631344,-0.304913557,-0.845817976,-0.071972638,0.062684025,0.5248482267833451,0.031045721,-0.188671311,2.033785695011176,3.2469793618430644E-4,-4.66E-04,1.1861111824084254E-5,Garage
78,-0.021015495,0.011559109902009368,7.753061234745054E-4,-36,13.948625659942627,-38.3506992,-29.05039543,-46.71160297,-2.470621986,-63.91079731,-0.007724313,-2.39E-04,-0.004179537,9.714630543606953,1.8602744074701105,-0.306795289,45,1.5,7.289900302886963,27.229999542236328,0.6705966591835022,324.8401794433594,156.09999084472656,-86.9091502,40.425153,9.714630543606953,1.8602744074701105,-0.306795289,-0.852956327,-0.072936037,0.061784875,0.5131409649665539,0.031106129915525135,-0.188956389,2.0613460701245527,5.168707525277009E-4,-5.05E-04,1.1747062671929598E-5,Garage
79,-0.020887417,0.011764740453834095,8.465868417508177E-4,-37.44444444,13.994497680664063,-38.38010124,-28.98951754,-46.66597511,-2.50002398,-63.8500407,0.004310136,8.986528637339768E-4,-0.004800392,9.723040256685424,1.8627136992019357,-0.309629508,45,1.5,7.289900302886963,27.229999542236328,0.6705966591835022,324.8401794433594,156.09999084472656,-86.9091502,40.425153,9.723040256685424,1.8627136992019357,-0.309629508,-0.859459855,-0.073761399,0.061012834,0.5021482089769493,0.031363088004652734,-0.189193417,2.0870371906502734,6.449479514787209E-4,-2.99E-04,8.302778276858978E-5,Garage
80,-0.021077195,0.011657990442896352,8.465868417508177E-4,-34.25,13.982785720825195,-38.33081329,-29.05625156,-46.67756519,-2.450735993,-63.91665249,0.017880292,0.002329472,2.430907441574393E-4,9.759722524476283,1.868707370989531,-0.307794235,45,1.5,7.289900302886963,27.229999542236328,0.6705966591835022,324.8401794433594,156.09999084472656,-86.9091502,40.425153,9.759722524476283,1.868707370989531,-0.307794235,-0.865380281,-0.074426241,0.060241829,0.4918715895958317,0.031617537683364255,-0.18920529,2.110891277350268,5.040972525235808E-5,-1.48E-06,8.302778276858978E-5,Garage
81,-0.021053473,0.014125101675179977,0.003301837,-33.77777778,13.993521718978881,-38.3365472,-29.00171745,-46.66634113,-2.456347985,-63.86236305,0.00275111,0.001139635,-9.84E-04,9.764856551457378,1.8766582718173277,-0.314447097,45,1.5,9.448445320129395,87.59999847,0.3232944905757904,329.6931457519531,156.09999084472656,-86.9091584,40.4251643,9.764856551457378,1.8766582718173277,-0.314447097,-0.870750615,-0.075199103,0.059748069934763955,0.4822436542186922,0.03210686,-0.189721357,2.1330978199116233,2.0756937780426544E-5,0.002519004,0.002538278,Garage
82,-0.021373723,0.009748351,0.002305504,-36.625,14.030121784210206,-38.33166729,-29.05490946,-46.62998524,-2.451467979,-63.91384697,-0.017538358,-0.003054926,-0.002710742,9.721118083366981,1.9020984379144816,-0.323407812,45,1.5,9.448445320129395,87.59999847,0.3232944905757904,329.6931457519531,156.09999084472656,-86.9091584,40.4251643,9.721118083366981,1.9020984379144816,-0.323407812,-0.875504758,-0.077081095,0.060122675,0.4732087824529814,0.032943595309280656,-0.193071329,2.153745135,-2.99E-04,-0.001857747,0.001541945,Garage
83,-0.020768806,0.011242851560700286,9.889201768583536E-4,-35.55555556,14.022313766479492,-38.33044727,-29.0134296,-46.637061,-2.450613987,-63.87322033,-0.00601812,0.002427428,-0.003618643,9.708869156,1.9063130177340462,-0.323428893,45,1.5,9.448445320129395,87.59999847,0.3232944905757904,329.6931457519531,156.09999084472656,-86.9091584,40.4251643,9.708869156,1.9063130177340462,-0.323428893,-0.880023852,-0.077808982,0.059437971887657946,0.46471883284235466,0.032914949490607366,-0.193396215,2.173076236132279,3.0542362947016954E-4,-3.63E-04,2.2536112465760082E-4,Garage
84,-0.020780667,0.010934462653274097,9.296146211286699E-4,-34,14.062451763153076,-38.34362316,-29.06015556,-46.59716702,-2.463545988,-63.92141045,-4.98E-04,-0.003373063,-0.003104344,9.710030731645602,1.9004325947715242,-0.323759937,45,1.5,9.448445320129395,87.59999847,0.3232944905757904,329.6931457519531,156.09999084472656,-86.9091584,40.4251643,9.710030731645602,1.9004325947715242,-0.323759937,-0.88417396,-0.078439915,0.058775976155568094,0.4567521807638187,0.032901901,-0.193609681,2.191131054776386,2.9356251764608526E-4,-6.72E-04,1.6605556553717955E-4,Garage
85,-0.021015495,0.011476880440918298,7.048237463235497E-4,-33,14.118205823898315,-38.3272752,-29.10126949,-46.54153484,-2.447197978,-63.96167084,0.019260067206162673,0.002999097,-0.001605135,9.749105768296324,1.9098819228051935,-0.321401962,45,1.5,9.448445320129395,87.59999847,0.3232944905757904,329.6931457519531,156.09999084472656,-86.9091584,40.4251643,9.749105768296324,1.9098819228051935,-0.321401962,-0.888040365,-0.078824639,0.058083008,0.4492122439237741,0.032962354114995554,-0.193386278,2.208162144972728,5.873531335964799E-5,-1.29E-04,-5.87E-05,Garage
86,-0.020970445,0.011468212680836904,7.161146156417513E-4,-35.75,14.15273178100586,-38.38119919,-28.99293343,-46.50725327,-2.50124398,-63.85418873,0.002531635,2.0518464949524518E-4,-0.001990986,9.754727743204358,1.9090717313359085,-0.323835441,45,1.5,5.491072177886963,82.5,1.1210196018218994,108.96562194824219,156.09999084472656,-86.9090652,40.4251357,9.754727743204358,1.9090717313359085,-0.323835441,-0.891608622,-0.079194755,0.057426229,0.4421080588137062,0.032998051,-0.193199279,2.2241392158767552,1.0378472846073723E-4,-1.38E-04,-4.74E-05,Garage
87,-0.021207667,0.011539379,8.110035034529504E-4,-36,14.141263799667358,-38.3049493,-29.0256295,-46.51884327,-2.424993982,-63.88456711,-0.0175557,-0.001464083,-3.73E-04,9.717557721925013,1.905084666696567,-0.321735915,45,1.5,5.491072177886963,82.5,1.1210196018218994,108.96562194824219,156.09999084472656,-86.9090652,40.4251357,9.717557721925013,1.905084666696567,-0.321735915,-0.894867215,-0.07966292,0.056861539,0.4354640980368679,0.033007371,-0.19330008,2.239013347810912,-1.33E-04,-6.67E-05,4.7444447296337016E-5,Garage
88,-0.020875556,0.011420768233540567,6.568090587818217E-4,-32.75,14.193967790603638,-38.36338707,-29.03368141,-46.46601727,-2.483675988,-63.8929845,-0.009186106,-0.001677712,-0.00188277,9.701133116935063,1.90261634,-0.322987499,45,1.5,5.491072177886963,82.5,1.1210196018218994,108.96562194824219,156.09999084472656,-86.9090652,40.4251357,9.701133116935063,1.90261634,-0.322987499,-0.897861319,-0.080160017,0.056387116,0.42922731568512407,0.033065376351180585,-0.193558069,2.2529266204648803,1.9867362305341126E-4,-1.85E-04,-1.07E-04,Garage
89,-0.020982307,0.013567629263474091,0.003633948,-25.22222222,13.860297775268554,-38.16403934,-29.20143143,-46.79919918,-2.28420596,-64.06110077,0.00274885,5.726085125821308E-4,-0.002252309,9.703013722713177,1.919296838916265,-0.352935587,45,1.5,5.491072177886963,82.5,1.1210196018218994,108.96562194824219,156.09999084472656,-86.9090652,40.4251357,9.703013722713177,1.919296838916265,-0.352935587,-0.900349195,-0.080516922,0.057626199158071316,0.4237486112464979,0.036226436206438006,-0.195058777,2.265353563919808,9.192370253533704E-5,0.001961531,0.002870389,Garage
90,-0.021729556,0.009155296,0.001332892,-35.55555556,14.70465968132019,-38.52589119,-28.82018148,-45.95532509,-2.645691943,-63.68107075,0.018399071924894757,0.00347538,5.950350495218073E-4,9.737211357042627,1.9382560311011898,-0.332613963,45,1.5,5.491072177886963,82.5,1.1210196018218994,108.96562194824219,156.09999084472656,-86.9090652,40.4251357,9.737211357042627,1.9382560311011898,-0.332613963,-0.902976729,-0.081927575,0.056484013615013325,0.41800293789326565,0.034179917,-0.196441692,2.277874249856449,-6.55E-04,-0.002450802,5.693333630350609E-4,Garage
91,-0.021290695,0.011124240438503585,0.001178698,-30.125,15.779357776641845,-38.96362724,-28.33218142,-44.8814809,-3.083549933,-63.19233883,0.005436258,0.002095385,7.129292754293646E-4,9.748365254078097,1.9444326521123496,-0.315141131,45,1.5,9.054790496826172,77.59999847,0.7336760759353638,318.3022461,158,-86.9091313,40.4251776,9.748365254078097,1.9444326521123496,-0.315141131,-0.905620834,-0.082768195,0.055262298,0.41224163973215716,0.032485091425840135,-0.196743847,2.2904537001859793,-2.16E-04,-4.82E-04,4.151389138429489E-4,Garage
92,-0.021172084,0.011432629331801702,7.042535032525442E-4,-35.88888889,15.939665641784668,-39.31218128,-28.26776552,-44.71995316,-3.432103949,-63.12889874,-0.016436521,-0.002517285,-5.79E-04,9.714374977408104,1.9429661718387048,-0.315832261,45,1.5,9.054790496826172,77.59999847,0.7336760759353638,318.3022461,158,-86.9091313,40.4251776,9.714374977408104,1.9429661718387048,-0.315832261,-0.908075363,-0.083315126,0.054800176,0.40675753991580704,0.032380329,-0.197169211,2.3025270225932295,-9.79E-05,-1.73E-04,-5.93E-05,Garage
93,-0.023247436,0.014777804962180268,0.010340352,-31.5,14.867163734436035,-40.03100506,-28.77723749,-45.79221123,-4.151049914,-63.63690662,-0.008485336,-0.001703415,-0.001119057,9.687426705962245,1.984073943304784,-0.332613963,45,1.5,9.054790496826172,77.59999847,0.7336760759353638,318.3022461,158,-86.9091313,40.4251776,9.687426705962245,1.984073943304784,-0.332613963,-0.910433815,-0.085474548,0.05599669,0.4008225666788908,0.034152877,-0.201894473,2.315617682842108,-0.002173207,0.003171707,0.009573856,Garage
94,-0.021077195,0.011480073761014105,5.856423725789973E-4,-39.11111111,14.731255750656128,-39.67269108,-29.21594925,-45.92885094,-3.792979889,-64.07696083,-7.19E-04,3.780693683809447E-4,-7.77E-04,9.676960963647343,2.0304000308212724,-0.350557228,45,1.5,9.054790496826172,77.59999847,0.7336760759353638,318.3022461,158,-86.9091313,40.4251776,9.676960963647343,2.0304000308212724,-0.350557228,-0.912459798,-0.087568133,0.057335345,0.39554954472097376,0.036133702,-0.206630539,2.3272465594763894,-2.97E-06,-1.26E-04,-1.78E-04,Garage
95,-0.021041612,0.011859629389115618,6.330868249614407E-4,-51,14.830929727554322,-39.74515919,-29.26792141,-45.82905506,-3.865081902,-64.12661499,0.017919152,0.00348877,0.00138,9.711476853750284,2.0350172577552423,-0.347313561,45,1.5,9.054790496826172,77.59999847,0.7336760759353638,318.3022461,158,-86.9091313,40.4251776,9.711476853750284,2.0350172577552423,-0.347313561,-0.914412023,-0.087800182,0.056790447,0.3910431040143504,0.035963698932268084,-0.206449718,2.3371020821691717,3.2618052995248325E-5,2.535312511117279E-4,-1.30E-04,Garage
96,-0.020946723,0.012025684950131815,5.500590461487114E-4,-49.22222222,14.752849712371827,-39.72100304,-29.2662134,-45.9068911,-3.841047888,-64.12600422,0.008181266,0.002202264,0.001874505,9.730344240482037,2.0358836765472708,-0.349372237,45,1.5,2.4111788272857666,24.03700065612793,0.7868099212646484,180.9912109,155.59999084472656,-86.9091219,40.425121,9.730344240482037,2.0358836765472708,-0.349372237,-0.916242414,-0.087843328,0.056384602,0.3867847687989763,0.036143199,-0.206044069,2.346434327005183,1.2750695097865988E-4,4.195868121279241E-4,-2.14E-04,Garage
97,-0.020899279,0.011657990433854385,6.686701683454143E-4,-52.66666667,14.76870964050293,-39.75235733,-29.26901945,-45.89212894,-3.872401917,-64.12881077,-0.016661237,-0.002836394,4.112125889768878E-4,9.697207080507741,2.029964448178856,-0.350040333,45,1.5,2.4111788272857666,24.03700065612793,0.7868099212646484,180.9912109,155.59999084472656,-86.9091219,40.425121,9.697207080507741,2.029964448178856,-0.350040333,-0.917921201,-0.088169731,0.056001092876913475,0.3827650995509138,0.036084749,-0.206194527,2.3551912377181563,1.7495139940524275E-4,5.189234671155805E-5,-9.49E-05,Garage
98,-0.020923001,0.011539379,8.228646141467887E-4,-47.625,15.052969675064087,-39.01864925,-29.61781744,-45.60689297,-3.138571937,-64.47773033,-0.009287593,4.0244477466472143E-4,-0.00328829,9.676574762585094,2.0301967743531013,-0.354744669,45,1.5,2.4111788272857666,24.03700065612793,0.7868099212646484,180.9912109,155.59999084472656,-86.9091219,40.425121,9.676574762585094,2.0301967743531013,-0.354744669,-0.919443497,-0.088465268,0.055766501,0.3790600178311172,0.036258613,-0.20641823,2.3632686786281254,1.5122916897559918E-4,-6.67E-05,5.930555912042127E-5,Garage
99,-0.020733223,0.011574962682732679,8.110035079739337E-4,-39.55555556,14.127599744796752,-39.77346333,-30.28515743,-46.53336113,-3.893507915,-65.14543694,0.002242662,-0.010989947,0.001897156,9.683297305,2.0139580930320964,-0.351071221,45,1.5,2.4111788272857666,24.03700065612793,0.7868099212646484,180.9912109,155.59999084472656,-86.9091219,40.425121,9.683297305,2.0139580930320964,-0.351071221,-0.920806297,-0.088443879,0.055425779,0.37579274929842904,0.036376051,-0.20599053,2.3703919683845296,3.4100695024922635E-4,-3.11E-05,4.7444447296337016E-5,Garage
100,-0.020804048,0.01155911,-1.29E-04,-22.875,12.661647787094116,-40.36016106,-30.28881735,-47.99784924,-4.480327907,-65.14787621,0.048338193,-0.12600458,-0.00308374,9.768994664682925,1.8080620892996926,-0.35523543,45,1.5,2.4111788272857666,24.03700065612793,0.7868099212646484,180.9912109,155.59999084472656,-86.9091219,40.425121,9.768994664682925,1.8080620892996926,-0.35523543,-0.922554881,-0.084302318,0.053333569,0.37271998593440425,0.03626238,-0.196571641,2.377253832725378,2.701824168280627E-4,-4.70E-05,-8.93E-04,Garage
101,-0.021112779,0.014136962782483078,9.651979871175604E-4,-35.66666667,11.652219829559327,-45.2095393,-28.85446339,-49.00825306,-9.329461827,-63.71486469,-0.008291541,0.073150322,-0.001812455,9.770289791,1.839900571165733,-0.366290619,45,1.5,2.0392415523529053,23.06800079345703,1.1330056190490723,225.5978546142578,155.59999084472656,-86.9091746,40.4250844,9.770289791,1.839900571165733,-0.366290619,-0.924901191,-0.076031615,0.050160996,0.3691238167795163,0.037264924,-0.178623578,2.385479152,-3.85E-05,0.002530865,2.0163890100943232E-4,Garage
102,-0.021468612,0.012974573841806754,9.533368498629447E-4,-27.625,5.534285912513733,-49.09462887,-26.18205349,-55.1249667,-13.21455173,-61.04282074,-0.033872623,0.09009135,0.00462965,9.686918509,2.103822521793032,-0.377093166,45,1.5,2.0392415523529053,23.06800079345703,1.1330056190490723,225.5978546142578,155.59999084472656,-86.9091746,40.4250844,9.686918509,2.103822521793032,-0.377093166,-0.925838564,-0.087796253,0.055209438,0.36339997869093443,0.039251741,-0.204110976,2.3975508791729085,-3.94E-04,0.001368476,1.8977778918534806E-4,Garage
103,-0.020306223,0.012120573808556622,-0.001727274,-32.11111111,1.8284139490127564,-44.73227493,-27.42450144,-58.83218094,-8.85231986,-62.28392666,0.010263970754678968,-0.104522239,-0.002743524,9.707725015658777,1.8939481568567962,-0.395082896,45,1.5,2.0392415523529053,23.06800079345703,1.1330056190490723,225.5978546142578,155.59999084472656,-86.9091746,40.4250844,9.707725015658777,1.8939481568567962,-0.395082896,-0.927738719,-0.087382042,0.055123907,0.3586223573939314,0.040440936,-0.203068694,2.407987166376947,7.680069544415885E-4,5.144757372372359E-4,-0.002490833,Garage
104,-0.020543446,0.012618740482563243,6.093646080947472E-4,-33.625,5.640425875,-39.49347328,-31.88396744,-55.019925,-3.613395939,-66.74400253,-0.009558946,0.039235721514062974,1.7957591894760872E-4,9.707270227945768,1.8687714728025289,-0.394694943,45,1.5,2.0392415523529053,23.06800079345703,1.1330056190490723,225.5978546142578,155.59999084472656,-86.9091746,40.4250844,9.707270227945768,1.8687714728025289,-0.394694943,-0.929436302,-0.079361517,0.051949303,0.3565767737268244,0.040681096,-0.185635853,2.4127180367997547,5.307847100481825E-4,0.001012642,-1.54E-04,Garage
105,-0.021670251,0.013733684939775363,-1.85E-04,-26.77777778,7.415403850078583,-43.68283089,-34.38386948,-53.2449469,-7.80263186,-69.24353867,0.006867992,0.060315312,-0.002280195,9.703348807918216,2.0636236760222797,-0.408141783,45,1.5,2.0392415523529053,23.06800079345703,1.1330056190490723,225.5978546142578,155.59999084472656,-86.9091746,40.4250844,9.703348807918216,2.0636236760222797,-0.408141783,-0.929093069,-0.087656791,0.055515549642947117,0.35499051849818924,0.041801243,-0.203703422,2.415934745547841,-5.96E-04,0.002127587,-9.49E-04,Garage
106,-0.018930335,0.011456351505719053,7.279757325519419E-4,-32.88888889,2.2972599482536316,-40.63258717,-35.85396927,-58.36357887,-4.752509885,-70.71327286,0.012273964372653406,-0.027936477,0.002550425,9.741128671516492,2.009857772623451,-0.424177179,45,1.5,2.0392415523529053,23.06800079345703,1.1330056190490723,225.5978546142578,155.59999084472656,-86.9091746,40.4250844,9.741128671516492,2.009857772623451,-0.424177179,-0.929240439,-0.088455869,0.056719128078627355,0.35421707705386635,0.043683858787261165,-0.20602999,2.4177368566827866,0.002143896,-1.50E-04,-3.56E-05,Garage
107,-0.011688328,0.013544363412970247,0.002408148,-29.875,3.3820839524269104,-39.78249119,-33.2082773,-57.27753471,-3.902413907,-68.0690451,0.020081400871276855,-0.054563962,-0.004822848,9.770150416105697,1.8559621028529787,-0.424548882,45,1.5,2.0392415523529053,23.06800079345703,1.1330056190490723,225.5978546142578,155.59999084472656,-86.9091746,40.4250844,9.770150416105697,1.8559621028529787,-0.424548882,-0.929932019,-0.082855741,0.054294316814495966,0.35413331194565845,0.04311544,-0.193766055,2.4180630560104666,0.009385903,0.001938265,0.001644589,Garage
108,0.020092723,0.021894129960644014,9.058924263017704E-4,-27.88888889,4.4687378883361815,-42.81187344,-30.64761948,-56.19112503,-6.931795888,-65.50741058,-0.02826974,0.11227389562477186,-0.017536198,9.707318463371795,2.138663640300047,-0.476142667,45,1.5,2.0392415523529053,23.06800079345703,1.1330056190490723,225.5978546142578,155.59999084472656,-86.9091746,40.4250844,9.707318463371795,2.138663640300047,-0.476142667,-0.928992039,-0.087334448,0.058164407725183706,0.3548856047750677,0.047072823,-0.204988202,2.4166306824360078,0.041166954,0.010288031844679918,1.4233334188901105E-4,Garage
109,0.062187809497117996,0.026448797,-5.53E-04,-28.375,3.2406859362125395,-43.51691124,-30.10093742,-57.42003098,-7.636955838,-64.96072899,-0.005182655,-0.002431572,0.019086829,9.703052678,2.1281282600847264,-0.422818154,45,1.5,4.347030162811279,61.516998291015625,13.265641212463379,204.54559326171875,154,-86.9097376,40.4241426,9.703052678,2.1281282600847264,-0.422818154,-0.918585021,-0.091037663,0.061777836,0.37943554879392233,0.045486199,-0.215812197,2.363084077835083,0.08326204,0.014842698703185447,-0.001316583,Garage
110,0.093002977,0.030576464,0.002210615,-33,0.32793598875403407,-39.80859932,-28.83957945,-60.33180473,-3.928765913,-63.70010239,-0.00282507,-0.034495017,0.012016046539093684,9.697093796961516,2.0892536026760213,-0.355008925,45,1.5,4.347030162811279,61.516998291015625,13.265641212463379,204.54559326171875,154,-86.9097376,40.4241426,9.697093796961516,2.0892536026760213,-0.355008925,-0.899996878,-0.089464688,0.062439582952596606,0.4217404292046445,0.037824327,-0.215385109,2.2692528118207616,0.11407720753290121,0.018970366,0.001447056,Garage
111,0.11685567320261186,0.034715992,9.889202265891707E-4,-26,-1.121911983,-35.62729336,-26.4299575,-61.78165257,0.25253999130800364,-61.29072483,0.005732499,-0.077724546,0.010699293567138968,9.683413899861849,2.008814865579972,-0.274369327,45,1.5,4.347030162811279,61.516998291015625,13.265641212463379,204.54559326171875,154,-86.9097376,40.4241426,9.683413899861849,2.008814865579972,-0.274369327,-0.873790257,-0.086102385,0.063331153,0.4740526117746112,0.029787698525537566,-0.212148799,2.150602417084777,0.1379299045911113,0.023109894,2.2536112013661746E-4,Garage
112,0.10594345108397955,0.033980603,0.004737032,-30.11111111,-0.101016019,-32.38038534,-22.4533675,-60.76136703,3.4995699405670164,-57.31425671,-0.043866787,0.17212130028067282,0.067026365,9.58945454,2.420859901650438,-0.060241633,45,1.5,4.347030162811279,61.516998291015625,13.265641212463379,204.54559326171875,154,-86.9097376,40.4241426,9.58945454,2.420859901650438,-0.060241633,-0.840099203,-0.093116816,0.066461891,0.5299363871222561,0.013126586093702942,-0.22886698,2.017526955280489,0.12701768109810005,0.022374504734083867,0.003973472,Garage
113,0.023271501412416257,0.020541963203656442,0.00216317,-26.22222222,1.7973039454221726,-30.54221136,-19.92296568,-58.8634127,5.337865905761719,-54.78324493,-0.014976076,0.10751648319577709,0.009850355,9.559001237,2.6431862428350357,-0.005328676,45,1.5,4.347030162811279,61.516998291015625,13.265641212463379,204.54559326171875,154,-86.9097376,40.4241426,9.559001237,2.6431862428350357,-0.005328676,-0.81824021,-0.106398889,0.073414036,0.5601204159190354,9.440986749794019E-4,-0.259256112,1.9411477533358972,0.044345732,0.008935865,0.001399611,Garage
114,-0.018630842,0.013591351703955578,5.991001727614695E-4,-29.125,2.163059946298599,-30.20000145,-19.18340164,-58.49680271,5.6800758838653564,-54.0440469,0.05223995,-0.147872829,-0.075209927,9.686137356804412,2.2692292917121963,-0.187543282,45,1.5,4.347030162811279,61.516998291015625,13.265641212463379,204.54559326171875,154,-86.9097376,40.4241426,9.686137356804412,2.2692292917121963,-0.187543282,-0.821627887,-0.098151987,0.073650728,0.5566379410716203,0.012095442767111728,-0.245743254,1.9521640539169312,0.002443389,0.001985254,-1.64E-04,Garage
115,-0.019428501,0.012630601662202078,4.0031229236244573E-5,-27.55555556,1.9485839712619781,-29.76775543,-19.59917761,-58.71054707,6.111955867,-54.45872501,0.022592350117211203,-0.090711374,-0.01304732,9.703749517792637,2.1776283203976825,-0.194922119,45,1.5,4.347030162811279,61.516998291015625,13.265641212463379,204.54559326171875,154,-86.9097376,40.4241426,9.703749517792637,2.1776283203976825,-0.194922119,-0.827293313,-0.09051793,0.071219514,0.549824487,0.018784539792144183,-0.230112783,1.970610414893882,0.001645729,0.001024504,-7.24E-04,Garage
116,-0.007092945,0.015572157331281205,0.002364809,-22.875,1.0234579890966415,-29.51497143,-20.22076761,-59.63616077,6.364983882904053,-55.0803149,-0.07211513,0.35717415578156997,-0.03863092,9.556559071957487,2.8998106590752464,-0.25102568,45,1.5,4.347030162811279,61.516998291015625,13.265641212463379,204.54559326171875,154,-86.9097376,40.4241426,9.556559071957487,2.8998106590752464,-0.25102568,-0.829608918,-0.10179073,0.079462873,0.5430813125036296,0.02206748,-0.258088354,1.9852505343631632,0.013981285570551035,0.003966059,0.00160125,Garage
117,0.091662672,0.031252547,-0.003826691,-18.11111111,0.1256599986925721,-29.73688948,-18.7223637,-60.53481281,6.143065896034241,-53.58276508,-0.031708421,0.16398350937852582,-0.143294217,9.507523629,3.143631726792715,-0.482153763,45,1.5,4.347030162811279,61.516998291015625,13.265641212463379,204.54559326171875,154,-86.9097376,40.4241426,9.507523629,3.143631726792715,-0.482153763,-0.818058839,-0.115075671,0.098794339,0.5545575971742278,0.035514624644685716,-0.302558438,1.9555351525834463,0.11273690287783308,0.019646449,-0.00459025,Garage
118,0.21178015126186667,0.06478391,-0.006886858,-23.875,3.8739879294857382,-26.46094555,-14.89863974,-56.78526482,9.419131779670716,-49.75867508,-0.018131025,0.029472580233823906,-0.230128683,9.478833299416761,3.1804092893233666,-0.676429679,45,1.5,5.712456703186035,71.88800048828125,1.826451301574707,170.02049255371094,154.1999969482422,-86.9096553,40.4240735,9.478833299416761,3.1804092893233666,-0.676429679,-0.76902904,-0.110036938,0.11718861375329565,0.6178179730489416,0.046630752,-0.319910875,1.7955162930257111,0.23285438192700877,0.053177812,-0.007650417,Garage
119,0.16421709419454186,0.038606437,0.009232393,-25,1.914301952123642,-27.48733137,-14.81628975,-58.74507282,8.392745814323426,-49.67632492,0.016079671174577138,-0.072383647,0.041825355,9.489885246869429,3.1552677108246145,-0.252396327,45,1.5,5.712456703186035,71.88800048828125,1.826451301574707,170.02049255371094,154.1999969482422,-86.9096553,40.4240735,9.489885246869429,3.1552677108246145,-0.252396327,-0.698210237,-0.105287134,0.12646896355939144,0.6963004232610314,0.031678007,-0.328924774,1.578790459818053,0.18529132384698369,0.027000338424593935,0.008468834,Garage
120,0.031194724567523858,0.015168879571081437,0.007844643,-19.88888889,2.6348339311778544,-30.28540157,-14.46334374,-58.02490707,5.594675894938409,-49.32325691,0.017631864084780794,-0.214721372,0.066200827,9.510087781739466,2.8161344551345677,0.071270687,45,1.5,5.712456703186035,71.88800048828125,1.826451301574707,170.02049255371094,154.1999969482422,-86.9096553,40.4240735,9.510087781739466,2.8161344551345677,0.071270687,-0.668136256,-0.103967769,0.11348504768413248,0.7279183251186482,3.375620527522982E-4,-0.309030348,1.4852918768392025,0.052268955,0.003562781,0.007081084,Garage
121,-0.023330807,0.012073129408165488,-7.41E-06,-23,1.5633079648576678,-28.98671148,-14.25033173,-59.09728695,6.893243865966797,-49.11036709,0.040819131,-0.14499056,0.018419289545526782,9.550719288946356,2.667991453004115,0.14498937230340195,45,1.5,5.712456703186035,71.88800048828125,1.826451301574707,170.02049255371094,154.1999969482422,-86.9096553,40.4240735,9.550719288946356,2.667991453004115,0.14498937230340195,-0.673656179,-0.102328408,0.10041504338817689,0.7249862997277269,-0.013668227,-0.287415286,1.4954479446688902,-0.002256577,4.6703126903135077E-4,-7.71E-04,Garage
122,-0.020663083,0.011147963,-0.00128043,-25,1.945533949881792,-29.96478535,-12.81256176,-58.71493881,5.915169894695282,-47.67320709,0.011105546584496131,-0.071165669,0.008473677,9.562085189,2.567983650466771,0.13649543288878155,45,1.5,5.712456703186035,71.88800048828125,1.826451301574707,170.02049255371094,154.1999969482422,-86.9096553,40.4240735,9.562085189,2.567983650466771,0.13649543288878155,-0.684894933,-0.09762502,0.092663789,0.716088607,-0.013381134,-0.269697078,1.524455291720537,4.1114714202614356E-4,-4.58E-04,-0.002043989,Garage
123,-0.023058001,0.013188074,-0.005404219,-26.625,0.33122999250888824,-28.94388935,-11.6642978,-60.32912083,6.936065876483918,-46.52421108,0.03068173,-0.041938289,0.012523267598985468,9.628706737629418,2.462542640352712,0.13445398050984278,45,1.5,13.973390579223633,77.59999847,7.418255805969238,26.58960533,153.89999389648438,-86.9092102,40.424903,9.628706737629418,2.462542640352712,0.13445398050984278,-0.695640926,-0.093677184,0.086377638,0.7069847936769134,-0.012704168,-0.255228454,1.5529880766729707,-0.001983771,0.001581976,-0.006167778,Garage
124,-0.021990501,0.011895213,0.004582837,-23.88888889,1.0241899802722036,-31.03862919,-13.23712175,-59.63616081,4.8412038972601295,-48.0965472,0.098227871,-0.350471477,0.016699898879504897,9.677431393595574,2.0756981361259537,0.1274178062350313,45,1.5,13.973390579223633,77.59999847,7.418255805969238,26.58960533,153.89999389648438,-86.9092102,40.424903,9.677431393595574,2.0756981361259537,0.1274178062350313,-0.706362711,-0.092011679,0.08287293,0.6969079271103572,-0.011553257,-0.248040784,1.5828294244784753,-9.16E-04,2.891146278379539E-4,0.003819278,Garage
125,-0.015549918,0.013686241,-0.002059386,-24.5,-0.001952014,-31.08657549,-12.57209973,-60.66205879,4.793501923084259,-47.43274513,-0.03035912,-0.084057807,-0.041778073,9.640406351823072,1.8806694425069368,0.045052365,45,1.5,13.973390579223633,77.59999847,7.418255805969238,26.58960533,153.89999389648438,-86.9092102,40.424903,9.640406351823072,1.8806694425069368,0.045052365,-0.719261103,-0.075191964,0.065577963,0.6875142628706775,-0.00925987,-0.199665748,1.6149938557911845,0.005524313,0.002080143,-0.002822945,Garage
126,0.031716613,0.022949769,0.004416781,-31,-0.312197996,-31.26432934,-14.12101174,-60.97169483,4.615747887790203,-48.98092499,-0.034717273,0.1354697607095959,-0.151474116,9.587854468706743,2.3330833946616902,-0.20645355,45,1.5,13.973390579223633,77.59999847,7.418255805969238,26.58960533,153.89999389648438,-86.9092102,40.424903,9.587854468706743,2.3330833946616902,-0.20645355,-0.722472874,-0.079731042,0.079140932,0.6821718997168309,0.005717343,-0.225107001,1.6288470978875762,0.052790844,0.011343670765376531,0.003653222,Garage
127,0.144373453,0.045723104,0.00184292,-28.375,-1.489863978,-31.03216337,-13.08901371,-62.14984867,4.8474259203672405,-47.94941528,0.052447199,-0.012764365,-0.279345387,9.682710804985565,2.2969006600889186,-0.689710804,45,1.5,13.973390579223633,77.59999847,7.418255805969238,26.58960533,153.89999389648438,-86.9092102,40.424903,9.682710804985565,2.2969006600889186,-0.689710804,-0.696236853,-0.067675845,0.097634933,0.7076075893003964,0.041330053,-0.234883136,1.5594696223157123,0.1654476840953225,0.034117006,0.001079361,Garage
128,0.2982713789905159,0.085896689,-0.030680248,-27.66666667,-2.103889948,-32.19836143,-10.19248985,-62.76363083,3.681715938001871,-45.05252529,0.031998153,-0.260794028,-0.340723227,9.649928463,1.8855181029699382,-1.207890487,45,1.5,2.9420888423919678,21.392000198364258,9.493305206298828,18.25252914428711,158.59999084472656,-86.9090752,40.4255237,9.649928463,1.8855181029699382,-1.207890487,-0.617660403,-0.033813052,0.11277858623601858,0.7763301377157563,0.089760611,-0.219660244,1.3539515039295826,0.3193456079196004,0.074290591,-0.031443807,Garage
129,0.3394548695247907,0.08226468,9.515120450837108E-4,-24.22222222,3.0124239356443288,-35.33961744,-4.655763909,-57.64731686,0.5405819901823997,-39.51628723,0.075949412,-0.373256895,0.14243885244314486,9.811804086259269,1.3729865354241677,-0.961354248,45,1.5,2.9420888423919678,21.392000198364258,9.493305206298828,18.25252914428711,158.59999084472656,-86.9090752,40.4255237,9.811804086259269,1.3729865354241677,-0.961354248,-0.484410656,0.005692077,0.1042673892269914,0.8672365878637021,0.11349921558911984,-0.176376639,1.028907569555136,0.3605290995194362,0.070658582,1.8795298036331168E-4,Garage
130,0.26296084887773086,0.064831355,-0.004514636,-27.5,-2.976677951,-42.26360508,3.073057945650071,-63.63593067,-6.383649901,-31.78697744,0.073767856,-0.223790388,0.3984589961547296,9.814597657583292,1.4617794196582534,-0.453439892,45,1.5,2.9420888423919678,21.392000198364258,9.493305206298828,18.25252914428711,158.59999084472656,-86.9090752,40.4255237,9.814597657583292,1.4617794196582534,-0.453439892,-0.348050964,0.010429252610424334,0.095167311,0.9317801600521051,0.087240668,-0.170688755,0.7224779528321572,0.2840350802662303,0.053225256511670295,-0.005278195,Garage
131,0.15836956561769097,0.047525993,-0.002937108,-29.66666667,-4.403223882,-46.38525326,3.075131938457489,-65.06308628,-10.50541978,-31.78563541,0.029621670547040922,-0.083634106,0.2873668144050154,9.789629862,1.4418585948573732,-0.093203929,45,1.5,2.9420888423919678,21.392000198364258,9.493305206298828,18.25252914428711,158.59999084472656,-86.9090752,40.4255237,9.789629862,1.4418585948573732,-0.093203929,-0.249191189,-7.69E-04,0.079848764,0.9648603553910857,0.038896251,-0.154897437,0.5085389671973812,0.17944379584881867,0.035919894595422504,-0.003700667,Garage
132,0.1768729003887732,0.053812382,0.009161226,-33.125,-2.098887928,-58.32124496,2.416209956407547,-62.75887287,-22.4411675,-32.44345959,-0.02020622,-0.122114219,-0.076900307,9.787663913467556,1.2878496727897126,-0.39046858,45,1.5,2.9420888423919678,21.392000198364258,9.493305206298828,18.25252914428711,158.59999084472656,-86.9090752,40.4255237,9.787663913467556,1.2878496727897126,-0.39046858,-0.171766991,0.003289858,0.072888674,0.9820970956561634,0.031976415,-0.142690644,0.3485819214177363,0.1979471297518721,0.042206283888747934,0.008397667,Garage
133,0.2794952383897837,0.065127882,0.010086392972491753,-21,6.304837889671326,-67.05205265,-0.664411994,-54.35514687,-31.17185339,-35.52395939,0.11409945626860683,0.0759721,0.014692532929401952,9.918106134121235,1.785776192179093,-0.384197586,45,1.5,2.9767844676971436,21.145000457763672,1.835947871208191,358.08746337890625,154.5,-86.9090911,40.4255876,9.918106134121235,1.785776192179093,-0.384197586,-0.055987304,0.015390464023334308,0.087006445,0.9935940585090118,0.04079129,-0.172292254,0.11607557084429466,0.30056947064631195,0.053521784483590754,0.009322834,Garage
134,0.336831853,0.085706911,0.002519004,-22.875,10.35474979877472,-66.94322823,0.9675819787196815,-50.30560101,-31.06327353,-33.89220959,-0.056562655,0.089504913,-0.066232565,9.676658982212103,2.125648329558882,-0.538640641,45,1.5,2.9767844676971436,21.145000457763672,1.835947871208191,358.08746337890625,154.5,-86.9090911,40.4255876,9.676658982212103,2.125648329558882,-0.538640641,0.11277102981015895,0.035330509152082565,0.0991473,0.9864095443660773,0.047947302,-0.205864382,-0.222757622,0.35790608432686444,0.074100813,0.001755445,Garage
135,0.31880296260407825,0.080262661,0.006777143,-32.55555556,4.5482819044589995,-72.70321465,-2.131095964,-56.11145863,-36.82301514,-36.99088711,0.020661391,-0.150792227,-0.008836845,9.702056597737434,1.9865480753981952,-0.505024964,45,1.5,2.9767844676971436,21.145000457763672,1.835947871208191,358.08746337890625,154.5,-86.9090911,40.4255876,9.702056597737434,1.9865480753981952,-0.505024964,0.3178418492807925,0.058475574,0.094317925,0.939505173,0.05154129,-0.216785449,-0.646800675,0.33987719428192065,0.068656564,0.006013584,Garage
136,0.2341072128082697,0.066124216,0.014495875295744134,-23,8.319545850753784,-78.36877274,-6.109393852,-52.34092709,-42.48881718,-40.96967304,-0.023707078,0.1977597589676197,-0.011067495,9.615284836408003,2.611725259753107,-0.420556004,45,1.5,2.9767844676971436,21.145000457763672,1.835947871208191,358.08746337890625,154.5,-86.9090911,40.4255876,9.615284836408003,2.611725259753107,-0.420556004,0.5093501700231662,0.08095445,0.093657713,0.8495204248107396,0.042502292073689975,-0.244863126,-1.07511347,0.2551814422297936,0.054518118,0.013732316285873262,Garage
137,0.17745409385093208,0.052899076160296654,0.003966059,-22.5,5.939447867870331,-81.46403458,-10.67743983,-54.72102497,-45.58395706,-45.53771908,-0.050703146,0.022852705520333597,-0.120995224,9.518270997167791,2.8527789139053197,-0.542589957,45,1.5,2.9767844676971436,21.145000457763672,1.835947871208191,358.08746337890625,154.5,-86.9090911,40.4255876,9.518270997167791,2.8527789139053197,-0.542589957,0.667033522,0.11227774692391887,0.090912486,0.7285678820702636,0.044033017,-0.287279871,-1.476333265,0.1985283248054171,0.041292978254558285,0.0032025,Garage
138,0.090464699,0.027919574862219465,-0.019412192,-22.22222222,9.272853827476501,-82.79456635,-12.7322857,-51.3878632,-46.91473309,-47.59280895,0.079502411,-0.064887318,0.17356360219057324,9.603277169385002,2.6847353976907082,-0.121453174,45,1.5,3.651313304901123,72.87300109863281,7.849233627319336,207.73204040527344,157.79998779296875,-86.9093219,40.4252466,9.603277169385002,2.6847353976907082,-0.121453174,0.7917113610841695,0.12102514411349899,0.071975734,0.5923793258018863,0.030975094,-0.280939528,-1.852415655,0.11153893013602321,0.016313476685222095,-0.020175751,Garage
139,-0.04267628,0.003960129,0.017511448962500915,-19.125,9.214903831481934,-80.49437874,-16.90126958,-51.44544708,-44.61417923,-51.7617931,0.11024032518701646,-0.171283271,0.3335316414103925,9.729698922,2.4675286580057976,0.4717142030063257,45,1.5,3.651313304901123,72.87300109863281,7.849233627319336,207.73204040527344,157.79998779296875,-86.9093219,40.4252466,9.729698922,2.4675286580057976,0.4717142030063257,0.8638066273291134,0.11310270226117476,0.07153064,0.4849109947681427,-0.01428398,-0.267680424,-2.120413033,-0.02160205,-0.007645969,0.016747889850397133,Garage
140,-0.072329059,0.005940935,-0.016446914,-18.44444444,8.991033854484558,-79.90646057,-13.8759137,-51.66931705,-44.02687119,-48.73631512,-0.090851256,-0.082573723,0.018650389990760286,9.523503193488487,2.2932012642805395,0.47881473827426535,45,1.5,3.651313304901123,72.87300109863281,7.849233627319336,207.73204040527344,157.79998779296875,-86.9093219,40.4252466,9.523503193488487,2.2932012642805395,0.47881473827426535,0.8988566115064528,0.099232761,0.072389378,0.42028516502056307,-0.0479962,-0.241664737,-2.272650189,-0.051254829,-0.005665164,-0.017210473,Garage
141,-0.017803529,0.010958184901787673,0.011557171,-18.375,8.582089824676514,-81.05655457,-13.28616573,-52.07862694,-45.17635509,-48.1454689,0.15534813890179383,-0.127233598,-0.226760098,9.731127637103924,2.228153466020973,0.15721193130480723,45,1.5,3.651313304901123,72.87300109863281,7.849233627319336,207.73204040527344,157.79998779296875,-86.9093219,40.4252466,9.731127637103924,2.228153466020973,0.15721193130480723,0.9261354462614337,0.10527524786088073,0.061616036,0.3562336109795617,-0.040412639,-0.241379979,-2.412102021,0.003270702,-6.48E-04,0.010793611931714039,Garage
142,-0.01205089,0.013626935,-0.009531886,-23.11111111,8.517307849,-82.24105209,-12.91406574,-52.14243301,-46.36085331,-47.77336906,0.024999238912341664,-0.126869394,-0.178849556,9.630454892093695,2.189775378958693,0.12690090913397883,45,1.5,3.651313304901123,72.87300109863281,7.849233627319336,207.73204040527344,157.79998779296875,-86.9093219,40.4252466,9.630454892093695,2.189775378958693,0.12690090913397883,0.9494498042226995,0.10835671576770764,0.04937251,0.28978033522957736,-0.031755591,-0.236746027,-2.552911008,0.009023341,0.002020837,-0.010295445,Garage
143,-0.006784556,0.010187213,0.010276171,-19.625,6.678889861106873,-80.35944618,-12.60943175,-53.98231483,-44.47924713,-47.46946693,0.3231382277405378,-0.73135893,-0.12959756,9.962337067983682,1.364219628202105,0.13517995899089938,45,1.5,15.350273132324219,92.90000153,4.466625690460205,162.9530487060547,156.09999084472656,-86.9091405,40.425096,9.962337067983682,1.364219628202105,0.13517995899089938,0.9662433989997049,0.10133916638719226,0.03826827,0.23323181705567445,-0.027255365,-0.215395336,-2.670833095,0.014289674489279685,-0.001418886,0.009512612,Garage
144,-0.017714571,0.013979004696571233,-0.006049737,-18.88888889,8.180709844,-82.65024048,-12.17620978,-52.47927486,-46.77016293,-47.03673309,0.19355557056573722,-0.949157349,-0.058210519,9.896621560587466,1.0189330004047132,0.19460559321694004,45,1.5,15.350273132324219,92.90000153,4.466625690460205,162.9530487060547,156.09999084472656,-86.9091405,40.425096,9.896621560587466,1.0189330004047132,0.19460559321694004,0.97688561,0.095413114,0.0315425,0.1882665979747589,-0.026130163,-0.199660365,-2.763431964,0.00335966,0.002372907,-0.006813296,Garage
145,-0.01888289,0.017386907,0.004665865,-25,8.950529856681824,-81.4412204,-13.54639172,-51.70969906,-45.56150913,-48.40532913,0.075051363,-0.515530672,-0.031639847,9.830801500857454,1.076633699889322,0.18545537035730306,45,1.5,15.350273132324219,92.90000153,4.466625690460205,162.9530487060547,156.09999084472656,-86.9091405,40.425096,9.830801500857454,1.076633699889322,0.18545537035730306,0.9846873428057699,0.078098777,0.02340039,0.1536386562782584,-0.02225799,-0.161746055,-2.833843965,0.00219134,0.005780809,0.003902306,Garage
146,0.003238083,0.019047463078784205,-0.003838552,-32.77777778,8.035285844802857,-80.99470062,-12.80023975,-52.62421101,-45.11462292,-47.66015316,-0.078491174,0.085969829,-0.117672492,9.726458151363632,1.5792397162289296,-0.05217457,45,1.5,15.350273132324219,92.90000153,4.466625690460205,162.9530487060547,156.09999084472656,-86.9091405,40.425096,9.726458151363632,1.5792397162289296,-0.05217457,0.989424769,0.074472675,0.012607654626707284,0.123381842,-0.006668814,-0.151133296,-2.893971941,0.024312314022449974,0.007441365,-0.004602111,Garage
147,0.11908556231595938,0.043979520078192384,-0.005937969,-28.25,9.706929793,-81.81027031,-14.29229974,-50.952323,-45.93031525,-49.15221294,0.13427211242972067,-0.124464782,-0.365886818,9.919259365,1.2836544278722544,-0.749025387,45,1.5,15.350273132324219,92.90000153,4.466625690460205,162.9530487060547,156.09999084472656,-86.9091405,40.425096,9.919259365,1.2836544278722544,-0.749025387,0.9946738203752388,0.072239301,-0.014549879,0.065739433,0.039067486,-0.142944714,-3.006886107,0.14015979265559067,0.032373422,-0.006701528,Garage
148,0.27685021196754234,0.06712055,0.012660254256967093,-30.55555556,9.815509824752807,-79.88608604,-18.04587357,-50.84471889,-44.0063752,-52.90505512,0.12809896932064907,-0.174918562,-0.253238453,9.904563718629115,1.2270679091944279,-1.257428297,45,1.5,2.3031110763549805,49.696998596191406,11.78231430053711,230.26516723632812,155,-86.9099617,40.4246857,9.904563718629115,1.2270679091944279,-1.257428297,-0.799556508,-0.054185797,0.048172799,0.063734746,0.10240708031121967,-0.141454499,2.352104339784789,0.29792444147531266,0.055514451188659206,0.011896695182161424,Garage
149,0.266875015,0.055354326,-0.001193524,-30.55555556,10.15832983493805,-75.91815849,-23.36385345,-50.50177696,-40.03808117,-58.2237669,0.038834507025561286,-0.232467433,0.19723660303551016,9.858841701618676,1.25633062,-0.739881669,45,1.5,2.3031110763549805,49.696998596191406,11.78231430053711,230.26516723632812,155,-86.9099617,40.4246857,9.858841701618676,1.25633062,-0.739881669,-0.972363348,-0.063554127,0.062069875,0.2122832044814397,0.095307307,-0.150286762,2.718957146,0.287949246,0.043748228499344864,-0.001957083,Garage
150,0.2139863186669581,0.067630577,0.009754282,-29.625,3.762967935204506,-72.6852803,-29.2497435,-56.89652874,-36.80544739,-64.1097789,0.11034133133379001,-0.33725399,0.26638134995710505,10.002582290797557,0.8557361075021688,-0.376550135,45,1.5,2.3031110763549805,49.696998596191406,11.78231430053711,230.26516723632812,155,-86.9099617,40.4246857,10.002582290797557,0.8557361075021688,-0.376550135,-0.942075173,-0.046205171,0.050295999,0.3268813299901277,0.065486148,-0.120135924,2.477634932230977,0.23506054918742875,0.056024479,0.008990723,Garage
151,0.14573405940945333,0.011241939179084372,0.013473880888061384,-31.625,5.584549884796143,-64.67500481,-30.21342138,-55.07543507,-28.79504948,-65.07321281,-0.118090079,0.099242234,0.30424259047811997,9.785831525487808,1.1840319511959854,-0.043276986,45,1.5,2.3031110763549805,49.696998596191406,11.78231430053711,230.26516723632812,155,-86.9099617,40.4246857,9.785831525487808,1.1840319511959854,-0.043276986,-0.910689209,-0.042463375,0.038155028,0.40847957592744094,0.034909037383141155,-0.108291379,2.300130071548315,0.1668082902637812,-3.64E-04,0.012710321685657479,Garage
152,0.084213894,0.065353244,-0.020005248,-29.77777778,-2.256999963,-71.63522667,-30.19768337,-62.91747292,-35.75527138,-65.05637646,0.007328246,0.13865975731784858,0.13811834841894294,9.873721317180152,1.5088198688423748,0.15006250352824776,45,1.5,2.3031110763549805,49.696998596191406,11.78231430053711,230.26516723632812,155,-86.9099617,40.4246857,9.873721317180152,1.5088198688423748,0.15006250352824776,-0.88745943,-0.061577848,0.030927119957445896,0.4555753203271662,-0.001229998,-0.137980049,2.1929714540833407,0.10528812420020983,0.053747146,-0.020768807,Garage
153,0.051429781,0.003307768,-4.30E-05,-23.88888889,11.19215778,-68.05477074,-31.83687529,-49.46672897,-32.17481537,-66.69691082,-0.101893082,0.32765353941222997,0.047919664,9.742783953842608,1.7297523218451194,0.16091151450714322,45,1.5,2.487008810043335,60.04399871826172,4.591787815093994,229.3291016,155,-86.910103,40.424591,9.742783953842608,1.7297523218451194,0.16091151450714322,-0.876742485,-0.064847039,0.028739863,0.47556772625562055,-0.01150797,-0.141495359,2.146696204120673,0.072504012,-0.00829833,-8.07E-04,Garage
154,0.080513227,0.038558992068961406,0.018495921,-22.625,14.505067710876466,-64.527873,-25.34061958,-46.15479515,-28.64791744,-60.20187469,-0.062002784,0.45796339488723903,-0.05923226,9.566083899,2.9731605330717215,0.10029237275237887,45,1.5,2.487008810043335,60.04399871826172,4.591787815093994,229.3291016,155,-86.910103,40.424591,9.566083899,2.9731605330717215,0.10029237275237887,-0.857899158,-0.114114671,0.056983625317372166,0.497407344,-0.016557194,-0.255374252,2.088624579235188,0.10158745821529222,0.026952894,0.017732362262904644,Garage
155,0.073942171,0.023424213436246823,-3.99E-04,-22,10.56056376,-48.75973923,-29.20387144,-50.09966511,-12.87990573,-64.06329697,-0.065064097,0.099510704,-0.040571849,9.474930579845722,2.9903495678534875,0.085083251,45,1.5,2.487008810043335,60.04399871826172,4.591787815093994,229.3291016,155,-86.910103,40.424591,9.474930579845722,2.9903495678534875,0.085083251,-0.836290465,-0.12724717,0.073024526,0.5281949801352418,-0.012897323,-0.294209743,2.0130146614556175,0.095016401,0.011818115245121377,-0.001162389,Garage
156,0.019736890002940464,0.018881407598580587,5.263368479310743E-4,-24,9.889319758415223,-52.52648884,-31.21821331,-50.7705431,-16.64628964,-66.07873688,0.14190113660201287,-0.581457272,0.029468125148305616,9.715298448951499,2.049577465335142,0.22842744560188893,45,1.5,2.487008810043335,60.04399871826172,4.591787815093994,229.3291016,155,-86.910103,40.424591,9.715298448951499,2.049577465335142,0.22842744560188893,-0.829422105,-0.117929937,0.06534369,0.5419248926986768,-0.020252157,-0.269769184,1.981364374021882,0.040811121,0.00727531,-2.37E-04,Garage
157,-0.017269779,0.018003685364287203,-0.001715413,-29.44444444,11.28499978542328,-51.19473705,-31.42378344,-49.37474083,-15.3146598,-66.28442848,0.10407151527775144,-0.44998062,0.030737301316654798,9.857174827,1.2764750487596086,0.27680660190187323,45,1.5,2.487008810043335,60.04399871826172,4.591787815093994,229.3291016,155,-86.910103,40.424591,9.857174827,1.2764750487596086,0.27680660190187323,-0.844093438,-0.081173268,0.035748606,0.5286374103675768,-0.026026962,-0.175762496,2.020241383209969,0.003804452,0.006397587,-0.002478972,Garage
158,-0.017608847,0.012945263199911166,0.025009496500738002,-35.5,12.372141785621643,-50.15822491,-31.19600945,-48.28735512,-14.2780257,-66.05519093,0.075069226,-0.322125737,-8.95E-04,10.03365125933897,0.8220187900135818,0.2185280127631663,45,1.5,1.660628318786621,71.98400115966797,3.6353960037231445,98.58077239990234,155,-86.9097707,40.4245963,10.03365125933897,0.8220187900135818,0.2185280127631663,-0.855495725,-0.054599949,0.020147494237440135,0.5144900198166187,-0.021888011,-0.114402107,2.057444393634796,0.003465383,0.001339165,0.024245937292177517,Garage
159,-0.017020696,0.013650657221430785,-0.015687803,-35.77777778,9.130113841108978,-46.51127903,-34.7933016,-51.53096905,-10.63132374,-69.65443428,-0.294583108,0.1884335944953474,0.007080368,9.796573101895527,1.3223074761409204,0.23801906311034576,45,1.5,1.660628318786621,71.98400115966797,3.6353960037231445,98.58077239990234,155,-86.9097707,40.4245963,9.796573101895527,1.3223074761409204,0.23801906311034576,-0.861847741,-0.054015507,0.018391449673517236,0.5039257193074643,-0.02287693,-0.111876227,2.0821232193882024,0.004053535,0.002044559,-0.016451362,Garage
160,0.022547973509769417,0.015761935212016468,-0.018546331,-29.66666667,0.010248001031577587,-54.66380692,-34.33458141,-60.64949295,-18.78397358,-69.19437256,-0.129331089,0.1914774816013077,-0.080050185,9.794459074446298,1.4905920260160872,0.090119973,45,1.5,1.660628318786621,71.98400115966797,3.6353960037231445,98.58077239990234,155,-86.9097707,40.4245963,9.794459074446298,1.4905920260160872,0.090119973,-0.863347302,-0.060520901,0.025242822552190243,0.5003022991337822,-0.017121777,-0.130140147,2.0900680324406298,0.043622204,0.004155837,-0.01930989,Garage
161,0.13156345284100876,0.044963992,0.014961309990398044,-23.5,8.777777805,-53.26239307,-33.24914736,-51.88232891,-17.38219372,-68.1094265,-0.040416653,0.3297154579347777,-0.09525562,9.661918723467485,2.2318501472473145,-0.107607325,45,1.5,1.660628318786621,71.98400115966797,3.6353960037231445,98.58077239990234,155,-86.9097707,40.4245963,9.661918723467485,2.2318501472473145,-0.107607325,-0.842220884,-0.081278285,0.052123944,0.5299320192012972,0.001297629,-0.193562063,2.0185120395086344,0.1526376832168079,0.033357894418815384,0.014197750925764587,Garage
162,0.24560804245541396,0.06798641,3.128368769166539E-4,-27.55555556,6.054127877354622,-43.46481689,-29.49813551,-54.60610096,-7.584861848,-64.35756084,-0.020675465,0.19785839608572062,-0.236354189,9.611439393116878,2.587670874137145,-0.471803081,45,1.5,1.660628318786621,71.98400115966797,3.6353960037231445,98.58077239990234,155,-86.9097707,40.4245963,9.611439393116878,2.587670874137145,-0.471803081,-0.786539408,-0.088635351,0.083237827,0.6043454501235369,0.024147585269461556,-0.243079544,1.834248657365447,0.2666822725418702,0.056380312,-4.51E-04,Garage
163,0.33958363272611375,0.081780884,0.004369337,-24.625,7.2230099058151245,-34.8508853,-25.45542162,-53.43673088,1.0291919931024314,-60.31545681,0.071211991,-0.153017751,-0.357845805,9.698348332377313,2.4244172005977447,-0.973385155,45,1.5,1.4996659755706787,50.23099899291992,4.705700874328613,104.10197448730469,156.09999084472656,-86.9094788,40.4245349,9.698348332377313,2.4244172005977447,-0.973385155,-0.689096482,-0.068229112,0.11485305030658408,0.7105864998206352,0.06374893,-0.261346403,1.5484540647673375,0.3606578632465844,0.070174786,0.003605778,Garage
164,0.3106899633280282,0.06968255,-0.02504622,-22.55555556,3.0636639364995064,-27.48257351,-22.54706356,-57.59619877,8.397015867233277,-57.40697689,-0.058472226,-0.232944029,-0.089711021,9.572733805017563,2.1441781648154397,-0.87789004,45,1.5,1.4996659755706787,50.23099899291992,4.705700874328613,104.10197448730469,156.09999084472656,-86.9094788,40.4245349,9.572733805017563,2.1441781648154397,-0.87789004,-0.563895872,-0.035816462,0.12163662946629293,0.8148210419034495,0.081904045,-0.241371302,1.2207502971575097,0.33176419486119907,0.058076451901567974,-0.025809779,Garage
165,0.1762764220340894,0.040774054834820654,-0.016128717,-28.875,1.0112579786777496,-22.68272751,-18.8220377,-59.64836067,13.197105703353882,-53.6814629,0.014737688578092135,-0.111592135,0.052429115,9.654891282609366,1.9154719496236263,-0.527689989,45,1.5,1.4996659755706787,50.23099899291992,4.705700874328613,104.10197448730469,156.09999084472656,-86.9094788,40.4245349,9.654891282609366,1.9154719496236263,-0.527689989,-0.462582857,-0.022032888,0.10529413711852752,0.8796585809725982,0.060195179,-0.207045813,0.9745604195273839,0.19735065317497805,0.029167957,-0.016892276,Garage
166,0.089171838,0.029473380348984224,7.872812475927753E-4,-21.22222222,1.6551739633083344,-22.80448357,-16.32433165,-59.00542088,13.075593795776367,-51.18485489,0.064556187,-0.163748076,0.1175308914728535,9.756336489927422,1.6052674691653945,-0.270185686,45,1.5,1.4996659755706787,50.23099899291992,4.705700874328613,104.10197448730469,156.09999084472656,-86.9094788,40.4245349,9.756336489927422,1.6052674691653945,-0.270185686,-0.407153853,-0.018893247,0.090299355,0.9085858371651289,0.039998854,-0.18040863,0.8462366820539086,0.11024606929531375,0.017867282,2.3722246253085368E-5,Garage
167,0.026165612765307565,0.019711685453957507,9.651978972630159E-4,-31.33333333,-0.018665999,-23.12583143,-14.31096569,-60.67852886,12.754367804527282,-49.17026924,-0.028350765,-0.129944118,0.084739395,9.757663578663058,1.3977510929107666,-0.087172503,45,1.5,1.4996659755706787,50.23099899291992,4.705700874328613,104.10197448730469,156.09999084472656,-86.9094788,40.4245349,9.757663578663058,1.3977510929107666,-0.087172503,-0.384190406,-0.021783383,0.074724453,0.91995264,0.017572039114401757,-0.154829782,0.7925879683309388,0.047239844,0.008105587,2.016390004710665E-4,Garage
168,0.002680611,0.017280157506285074,0.006195948,-27.75,0.2895059991814196,-23.34396746,-12.83708374,-60.37121086,12.535987720489501,-47.69833897,0.076729284,0.13754271187828582,0.074947388,9.920857568389003,1.6208817924110634,0.001007656,45,1.5,1.0648452043533325,51.231998443603516,3.9888815879821777,299.26800537109375,155,-86.9097833,40.4246514,9.920857568389003,1.6208817924110634,0.001007656,-0.382168755,-0.025191172,0.070427342,0.9210555669173454,0.007514904,-0.149548775,0.7871734766126837,0.023754842,0.005674059,0.005432389,Garage
169,-0.014956862,0.016876879709917438,-0.001015608,-25.22222222,0.6252499906346202,-23.72960957,-13.21028173,-60.03461288,12.150467739105224,-48.07031719,-0.065889979,0.097522829,0.11245328180708931,9.779566792,1.6636962231535177,0.032113289939633645,45,1.5,1.0648452043533325,51.231998443603516,3.9888815879821777,299.26800537109375,155,-86.9097833,40.4246514,9.779566792,1.6636962231535177,0.032113289939633645,-0.389686736,-0.027104987,0.073955404,0.917564256,0.007990986,-0.157491584,0.8038575215247071,0.006117368,0.005270782,-0.001779167,Garage
170,-0.01738839,0.009321351,-0.003874136,-25.125,2.8461379438638685,-23.2270915,-13.06083167,-57.81360283,12.652985706329346,-47.92196522,-0.101144957,0.01189236,0.097958803,9.729411458506167,1.5205110189984146,0.054189882,45,1.5,1.0648452043533325,51.231998443603516,3.9888815879821777,299.26800537109375,155,-86.9097833,40.4246514,9.729411458506167,1.5205110189984146,0.054189882,-0.401561055,-0.028659241,0.070700332,0.9126380010715966,0.004512629,-0.152666576,0.8293613241714182,0.00368584,-0.002284747,-0.004637695,Garage
171,-0.014684057,0.011966379,0.004286309,-24.55555556,0.319762007,-21.47895367,-11.15104383,-60.34022305,14.40124568939209,-46.01229904,-0.07034961,-0.173995763,0.024617433,9.791578348400524,1.1804485224115038,0.025824480043561422,45,1.5,1.0648452043533325,51.231998443603516,3.9888815879821777,299.26800537109375,155,-86.9097833,40.4246514,9.791578348400524,1.1804485224115038,0.025824480043561422,-0.413785344,-0.028518183,0.062391464,0.9077716232503502,-1.68E-04,-0.137313785,0.8553665303489537,0.006390174,3.602813394713098E-4,0.00352275,Garage
172,-0.016759751,0.013674379336575353,-0.008333914,-24.125,6.183081879615783,-24.98145157,-12.83403373,-54.47690269,10.89825975894928,-47.69358105,0.058714098,-0.086148235,0.026397341,9.94484101,1.1637974932645132,0.012208041653615756,45,1.5,1.0648452043533325,51.231998443603516,3.9888815879821777,299.26800537109375,155,-86.9097833,40.4246514,9.94484101,1.1637974932645132,0.012208041653615756,-0.427100786,-0.026229666,0.056895347,0.9020200846264663,0.001286318,-0.125373423,0.884517964,0.004314479,0.002068281,-0.009097473,Garage
173,-0.020439889,0.010948262505385524,0.002713572,-25.33333333,4.125307931900024,-24.03778154,-12.12692177,-56.53431076,11.842417736053466,-46.98585911,0.08921802,-0.269973412,0.041118773,9.964785034216723,0.9404780338111433,0.055641837883740664,45,1.5,1,46.08000183105469,20.781143188476562,358.8543395996094,155,-86.9097668,40.4258109,9.964785034216723,0.9404780338111433,0.055641837883740664,-0.441177959,-0.027474784,0.054483115,0.895325536,-0.001140742,-0.122117615,0.9156043936426823,6.343413204796469E-4,-6.58E-04,0.001950012,Garage
174,-0.02037739,0.007447296,0.007500671,-24.25,3.7584539246559143,-23.40240551,-12.15900774,-56.90177479,12.477305679321288,-47.01892094,-0.004309534,-0.31325249,0.033760914542865984,9.896554733943013,0.8188477245349328,0.10058566959556735,45,1.5,1,46.08000183105469,20.781143188476562,358.8543395996094,155,-86.9097668,40.4258109,9.896554733943013,0.8188477245349328,0.10058566959556735,-0.456952462,-0.029021365,0.049046458,0.8876482566583503,-0.006748724,-0.113847818,0.9504339781779687,6.968402789760996E-4,-0.004158802,0.006737112,Garage
175,-0.017779807,0.025037324,-0.002593136,-29.33333333,3.6207159185409545,-23.15254961,-11.85376376,-57.03902493,12.727527742385865,-46.71306702,-0.036015261,-0.037953392,-0.011176102,9.865642584643318,1.0812073650869352,-0.016439039,45,1.5,1,46.08000183105469,20.781143188476562,358.8543395996094,155,-86.9097668,40.4258109,9.865642584643318,1.0812073650869352,-0.016439039,-0.472644153,-0.026392829,0.049678398965342534,0.8794395836811622,5.303241974545318E-4,-0.112547511,0.9863188324622738,0.003294424,0.013431226509709128,-0.003356695,Garage
176,-0.020863696,0.005774879,0.002946004,-28.44444444,3.4534539651870726,-23.67092752,-11.78776181,-57.20628696,12.208905763626099,-46.64767494,0.011405370767834117,0.051427381,0.052303409,9.891776424,1.177484440115782,0.034166746405669704,45,1.5,1,46.08000183105469,20.781143188476562,358.8543395996094,155,-86.9097668,40.4258109,9.891776424,1.177484440115782,0.034166746405669704,-0.486271533,-0.026885132,0.050002567144562894,0.8719420600863337,0.001763795,-0.113614699,1.0175519325200795,2.1053473939847887E-4,-0.005831219,0.002182444,Garage
177,-0.042213697,0.003177295,0.043890561,-25.25,3.6176659202575685,-24.74062361,-12.94956778,-57.0419529,11.139453735351562,-47.80923706,0.017035113955007015,-0.073058955,0.004576174,9.952562480296903,1.2380737326677562,0.15568447627072918,45,1.5,1,46.08000183105469,20.781143188476562,358.8543395996094,155,-86.9097668,40.4258109,9.952562480296903,1.2380737326677562,0.15568447627072918,-0.507095581,-0.039603892,0.052400876,0.859313113,-0.01494774,-0.130631309,1.065256758800988,-0.021139466,-0.008428803,0.043127003,Garage
178,-0.026817974,0.00706774,0.010833642876128332,-24.77777778,3.2858259296417236,-27.20819542,-13.76208776,-57.3745248,8.672003870010377,-48.62212311,-0.030107831,-0.159107131,-0.052667877,9.952934144770058,1.3308333598294304,0.1312916224270842,45,1.5,1,46.08000183105469,20.781143188476562,358.8543395996094,155,-86.9097668,40.4258109,9.952934144770058,1.3308333598294304,0.1312916224270842,-0.532909896,-0.047489622,0.057642725377696234,0.8428264810043631,-0.018872696,-0.148326798,1.1262381782809507,-0.005743743,-0.004538358,0.010070083970294415,Garage
179,-0.009631223,0.020150547,0.010228726267475563,-23.875,1.458875972032547,-27.51966152,-15.05138376,-59.20062069,8.360415849685669,-49.911297,0.007916043,-0.078140574,-0.001882802,9.922443149159255,1.2745817020101455,0.091435445,45,1.5,1.4167137145996094,18.267000198364258,9.089149475097656,98.10482025146484,155.59999084472656,-86.9091226,40.4255626,9.922443149159255,1.2745817020101455,0.091435445,-0.554660339,-0.041249192,0.053990351198946386,0.8292670128414932,-0.008610988,-0.135716982,1.1784464745845609,0.011443007659411185,0.008544448,0.009465167,Garage
180,-0.030377904,0.010689827137796853,-0.033608346,-24.33333333,2.264563934803009,-29.12225351,-12.92528975,-58.39517685,6.7577018594741824,-47.78581318,-0.03019133,0.02003627,0.020836946,9.835456403713781,1.2097141389707917,0.093415913,45,1.5,1.4167137145996094,18.267000198364258,9.089149475097656,98.10482025146484,155.59999084472656,-86.9091226,40.4255626,9.835456403713781,1.2097141389707917,0.093415913,-0.577396042,-0.037808832,0.046677462,0.8141832838837917,-0.00782434,-0.119959396,1.233226212171408,-0.009303674,-9.16E-04,-0.034371905,Garage
181,-0.032048724,0.012120574,0.001665004,-24.25,3.5061579144001005,-27.03739561,-10.86422182,-57.15431496,8.842803802490234,-45.72401314,-0.035556441,0.011183538483184518,0.005499097,9.825330530555503,0.9568444733480805,0.087163792,45,1.5,1.4167137145996094,18.267000198364258,9.089149475097656,98.10482025146484,155.59999084472656,-86.9091226,40.4255626,9.825330530555503,0.9568444733480805,0.087163792,-0.599456827,-0.031984906,0.035732749,0.7989381690627163,-0.008283895,-0.095595247,1.2870128629277053,-0.010974494,5.144757440187109E-4,9.014445528822038E-4,Garage
182,-0.020733223,0.009570435,0.003586504,-23.44444444,3.306199963092804,-26.31198339,-10.3769538,-57.35427265,9.567971801757812,-45.23613514,0.018154154,0.014440426,-0.019841183,9.899635787149078,1.0350264710130044,0.027139952,45,1.5,1.4167137145996094,18.267000198364258,9.089149475097656,98.10482025146484,155.59999084472656,-86.9091226,40.4255626,9.899635787149078,1.0350264710130044,0.027139952,-0.617964651,-0.033688212,0.038934886093857216,0.7844876849535599,-0.004754862,-0.102911653,1.3341841709266589,3.4100691408135936E-4,-0.002035663,0.002822945,Garage
183,-0.021777001,0.012298490485917885,-0.001051191,-30.875,3.048169915676117,-26.94199146,-10.05560578,-57.61169273,8.937719821929932,-44.91564114,0.043763735,-0.148934058,0.001861541,9.981258938613447,0.796679261,0.060691738927576386,45,1.5,1.4167137145996094,18.267000198364258,9.089149475097656,98.10482025146484,155.59999084472656,-86.9091226,40.4255626,9.981258938613447,0.796679261,0.060691738927576386,-0.637610704,-0.032516527,0.034644299,0.7688363130810192,-0.005921345,-0.094886043,1.3844438143146849,-7.03E-04,6.923924275963268E-4,-0.00181475,Garage
184,-0.021029751,0.011373323732557552,0.001593837,-36.11111111,3.2414179491996764,-27.3270236,-10.25080583,-57.41807899,8.553053817749024,-45.11181717,-0.076974147,0.3703376141566675,0.008236656,9.83295094,1.479917660355568,0.068181066,45,1.5,1,23.368999481201172,5.7738423347473145,339.2948913574219,154.39999389648438,-86.9092719,40.4258175,9.83295094,1.479917660355568,0.068181066,-0.655622152,-0.038900381,0.039991288,0.752907441,-0.006052244,-0.111482056,1.432536289529893,4.447913882367819E-5,-2.33E-04,8.30277818643931E-4,Garage
185,-0.021148362,0.011895213,8.821701715718412E-4,-26.88888889,3.206525967121124,-27.29566967,-10.33315584,-57.45284897,8.584407835006713,-45.1933131,-0.034303165,0.092349508,0.001863956,9.772769761316985,1.628077691,0.070771215,45,1.5,1,23.368999481201172,5.7738423347473145,339.2948913574219,154.39999389648438,-86.9092719,40.4258175,9.772769761316985,1.628077691,0.070771215,-0.671280155,-0.054799692,0.054946976,0.73709188,-0.007067345,-0.155204885,1.4768594156191186,-7.41E-05,2.8911457923738265E-4,1.1861111824084254E-4,Garage
186,-0.020994167,0.011978240448583677,7.161146082951534E-4,-32.75,3.317423961162567,-27.20953747,-10.38219984,-57.34280487,8.670661849975586,-45.24174706,-0.007320987,0.017310718888217964,0.001164164,9.760974041466573,1.6269393499615123,0.068915615,45,1.5,1,23.368999481201172,5.7738423347473145,339.2948913574219,154.39999389648438,-86.9092719,40.4258175,9.760974041466573,1.6269393499615123,0.068915615,-0.689467268,-0.05895743,0.056453844,0.7196641396550298,-0.007102048,-0.163287858,1.5273633720805344,8.006250142183119E-5,3.7214237839453717E-4,-4.74E-05,Garage
187,-0.020909771,0.011782304043523394,5.756060524548118E-4,-29.88888889,2.919703917503357,-26.59270559,-10.32473783,-57.74064686,9.287371816635131,-45.18489502,0.008829768,0.004660128,0.002153266,9.781031368,1.6263585773486535,0.074334314,45,1.5,1,23.368999481201172,5.7738423347473145,339.2948913574219,154.39999389648438,-86.9092719,40.4258175,9.781031368,1.6263585773486535,0.074334314,-0.707610057,-0.060847947,0.055329106748104095,0.7017624280773677,-0.007195808,-0.164519209,1.5785012692213058,1.6445887516825818E-4,1.7620591993013828E-4,-1.88E-04,Garage
188,-0.020934862,0.011717296051747591,6.449479430018771E-4,-29.375,2.0043379426002503,-24.96095554,-9.992775755,-58.6547929,10.91899977684021,-44.85329906,0.017455573220854823,0.002536635,4.376588226522057E-4,9.818201398386538,1.6301452731623234,0.073265674,45,1.5,1,23.368999481201172,5.7738423347473145,339.2948913574219,154.39999389648438,-86.9092719,40.4258175,9.818201398386538,1.6301452731623234,0.073265674,-0.724459928,-0.06227181,0.053760561,0.6843574272776113,-0.00743874,-0.164559029,1.6270982374265357,1.3936806393299E-4,1.1119789679001257E-4,-1.19E-04,Garage
189,-0.02101789,0.011788462650356362,7.754201674155746E-4,-17.44444444,2.303725929260254,-24.88153358,-9.566507816,-58.35589275,10.998177804946899,-44.42605511,-0.003791929,8.225903927701191E-5,0.002239832,9.811592167,1.630865441942678,0.076285741,45,1.5,1.1890997886657715,31.24799919128418,1.8233442306518555,331.9267578,155,-86.909267,40.4257536,9.811592167,1.630865441942678,0.076285741,-0.739998964,-0.063556506,0.052297885,0.6675199837360567,-0.00755196,-0.164633259,1.6730706911642574,5.634027664341683E-5,1.8236457960209946E-4,1.1861111824084254E-5,Garage
190,-0.020875556,0.011942657135716342,6.568090474793633E-4,-30.25,2.6105559253692627,-23.98702967,-9.457561846,-58.04979481,11.892925748825073,-44.31710926,-0.016212973,-0.001186333,0.002338421,9.774822790645858,1.6274272168724282,0.074404007,45,1.5,1.1890997886657715,31.24799919128418,1.8233442306518555,331.9267578,155,-86.909267,40.4257536,9.774822790645858,1.6274272168724282,0.074404007,-0.75492178,-0.064735193,0.050974741686605714,0.6505878098960062,-0.007368365,-0.164818967,1.718380169961059,1.9867361853242787E-4,3.365590237081051E-4,-1.07E-04,Garage
191,-0.020958584,0.011397046018934365,5.144757123718273E-4,-28.44444444,1.9283319306373596,-23.50073755,-9.314943829,-58.73116482,12.379217796325683,-44.17436909,-0.005916966,-6.20E-04,-6.45E-05,9.764746804,1.623415122811611,0.07564138,45,1.5,1.1890997886657715,31.24799919128418,1.8233442306518555,331.9267578,155,-86.909267,40.4257536,9.764746804,1.623415122811611,0.07564138,-0.768645222,-0.065921415,0.049379207,0.634321658,-0.007826844,-0.164736627,1.7610532982835492,2.0756926477968114E-5,-3.04E-04,-1.54E-04,Garage
192,-0.021053473,0.011764740435750161,7.279757246402209E-4,-23.88888889,1.8980759251117707,-23.16121164,-8.932961836,-58.76166477,12.718865776062012,-43.7926313,0.006355138,0.002329966,0.002641208,9.778046136,1.6271484384258974,0.087239293,45,4.765133857727051,1.223927617073059,95.27500153,2.4948360919952393,323.5453796386719,155,-86.9093803,40.4258418,9.778046136,1.6271484384258974,0.087239293,-0.781518228,-0.067142671,0.047731922,0.6183917921723672,-0.008550335,-0.164730763,1.802096903902813,-1.32E-04,5.930551391058755E-6,1.1712845157180886E-4,Garage
193,-0.021077195,0.012855962696440012,6.449479396111395E-4,-25.5,1.995675950050354,-23.22001549,-8.915149784,-58.66369907,12.660183801651002,-43.77420918,0.022146576816595875,0.001370376,0.001955445,9.818973837546931,1.6304240469793672,0.081524397,45,5.562023162841797,1.233909249305725,92.67099762,3.071016311645508,319.33172607421875,155,-86.9094651,40.4258917,9.818973837546931,1.6304240469793672,0.081524397,-0.793762438,-0.067950541,0.046530379,0.6025991231492422,-0.008136867,-0.164700387,1.842235158948065,-1.56E-04,0.001097153,3.410066315198986E-5,Garage
194,-0.021183945,0.012666184961506463,9.414757312573854E-4,-25.55555556,2.0176359486579893,-23.27247547,-8.720681839,-58.6423489,12.607235774993896,-43.57864288,-0.006212605,7.853068194343049E-4,1.1997543347692027E-4,9.808177087,1.6336299655506912,0.067968941,45,4.261748313903809,1.243797779083252,86.31300354003906,3.469055414199829,318.8566589355469,155,-86.9095274,40.4259423,9.808177087,1.6336299655506912,0.067968941,-0.805459855,-0.06858073,0.045694214698759096,0.5868660564561492,-0.00697981,-0.164860675,1.8816753973081275,-2.62E-04,9.07375072626379E-4,3.306284587540962E-4,Garage
195,-0.020886277,0.011876280526988782,6.343413708516612E-4,-27.625,2.0461839401721953,-23.42607349,-8.512915812,-58.61380093,12.454125699996949,-43.37270725,-0.02046012,-0.002308013,-4.00E-04,9.770644067560585,1.628100922,0.06810252,45,4.093079566955566,1.2538018226623535,80.55699920654297,4.025475978851318,316.54742431640625,155,-86.9095955,40.4259858,9.770644067560585,1.628100922,0.06810252,-0.816653362,-0.069529949,0.044405520284691684,0.5711743212663211,-0.006994833,-0.165043904,1.9203563378407404,3.5241159471647385E-5,1.1747062671929598E-4,2.3494096799717787E-5,Garage
196,-0.02101789,0.012001963,6.805312773438839E-4,-27.55555556,2.062653945684433,-23.46133156,-8.405677824,-58.59745308,12.41874571800232,-43.26546917,-0.004364356,4.9824853545253715E-6,0.001205408,9.764656215038114,1.6276130606827226,0.070297877,45,3.873628854751587,1.2637507915496826,74.97000122070312,4.298220634460449,314.6559143066406,155,-86.9096437,40.426016,9.764656215038114,1.6276130606827226,0.070297877,-0.827313658,-0.07039836,0.043057368326823685,0.5556200320280872,-0.007082199,-0.165083738,1.9581926702295693,-9.64E-05,2.4315279239372722E-4,6.968400540571768E-5,Garage
197,-0.020958584,0.011764740444792128,6.33086828917301E-4,-27.375,2.149639929533005,-23.48731756,-8.36431982,-58.51034504,12.392515726089478,-43.22459923,0.007398374,-0.002228863,0.00144622,9.774541169694327,1.6248020778581933,0.07174112,45,3.878814220428467,1.2738531827926636,70.69000244140625,3.8543753623962402,313.50311279296875,155,-86.9096693,40.4260317,9.774541169694327,1.6248020778581933,0.07174112,-0.837320422,-0.071194815,0.041706257002446255,0.5404252479377302,-0.007206409,-0.165057244,1.9946957456255423,-3.71E-05,5.930558172533813E-6,2.2239553588397296E-5,Garage
198,-0.021006029,0.011373323714473619,5.737812799690924E-4,-27.22222222,2.145857926607132,-23.43693163,-8.227191882,-58.51510296,12.443267755508423,-43.08734928,0.018382766871776396,0.001694318,-0.005210367,9.810955322705782,1.633469581604004,0.067395921,45,3.802656888961792,1.2838572263717651,62.47999954223633,2.9404499530792236,312.2022705078125,155,-86.9096791,40.4260362,9.810955322705782,1.633469581604004,0.067395921,-0.846727007,-0.072011569,0.04037442,0.5255590694621929,-0.007421073,-0.165142676,2.029983594579604,-8.45E-05,-3.85E-04,-3.71E-05,Garage
199,-0.02080439,0.011420768,6.68670156477833E-4,-24.625,2.092665935754776,-23.22965351,-8.099945817,-58.56707489,12.65030179977417,-42.96022526,-0.001117512,0.001941327,0.006311199,9.814220132179631,1.633537042488172,0.080107288,45,4.419887065887451,1.2938305139541626,50.612998962402344,1.7900872230529785,311.4519348144531,155,-86.9096745,40.4260321,9.814220132179631,1.633537042488172,0.080107288,-0.855554539,-0.072516347,0.038940872,0.5111051329131265,-0.007597635,-0.164636638,2.0639601864861055,1.171284419647192E-4,-3.38E-04,5.7822881148929154E-5,Garage
200,-0.020970445,0.011788462614188495,8.58447952444656E-4,-24.33333333,2.2735919404029845,-23.0235956,-8.067859807,-58.38627087,12.856359758377074,-42.92765118,-0.017255515,-0.004951882,-0.001292058,9.773829682359418,1.6233617391401125,0.079137382,45,3.709406852722168,1.3038325309753418,46.013999938964844,1.0298726558685303,314.7194824,155,-86.9096688,40.4260304,9.773829682359418,1.6233617391401125,0.079137382,-0.863681813,-0.073357418,0.037551747616922974,0.4972337814210688,-0.008196871,-0.164808451,2.0961741266898737,-4.89E-05,2.9652772778735578E-5,2.476006805064898E-4,Garage
201,-0.021148362,0.011669851551894822,0.001463365,-31.66666667,3.757843938,-25.16079151,-8.731417818,-56.90275101,10.71891978263855,-43.5920631,-0.008441726,0.001394638,-8.99E-05,9.765239933162059,1.6353868332881372,0.071070318,45,3.4968700408935547,1.3138030767440796,43.20199966430664,0.533657432,329.3327941894531,155,-86.9096615,40.4260299,9.765239933162059,1.6353868332881372,0.071070318,-0.871635927,-0.074052091,0.037007033535577716,0.4830870923486728,-0.007130336,-0.165604051,2.128830495,-2.27E-04,-8.90E-05,8.525173705369595E-4,Garage
202,-0.021203448,0.012111221766994836,9.515120568371807E-4,-45.125,4.045153918266297,-25.37551159,-8.836703844,-56.61483105,10.504443826675415,-43.69734898,-0.002108886,5.537752921764667E-4,0.012265286,9.767638493510125,1.6361157060826865,0.082999584,45,3.5741851329803467,1.3238931894302368,40.79399871826172,0.2647431790828705,356.40826416015625,155,-86.909656,40.426029,9.767638493510125,1.6361157060826865,0.082999584,-0.879557212,-0.074839423,0.035753285,0.4684848811190862,-0.007328297,-0.165915251,2.162152953,-2.82E-04,3.5241189135166886E-4,3.4066478446430457E-4,Garage
203,-0.021053473,0.011942657135716342,6.212257182234627E-4,-38.55555556,4.102371950149536,-25.28571957,-8.840363846,-56.55712479,10.594357748031616,-43.70076504,0.018861085,9.805982552685785E-4,0.002064664,9.810224375678498,1.6398791815470724,0.077374708,45,3.6623079776763916,1.3339192867279053,39.29999923706055,0.1922815442085266,35.73738479614258,155,-86.9096519,40.4260286,9.810224375678498,1.6398791815470724,0.077374708,-0.88677711,-0.075437925,0.034397803,0.4546792159960108,-0.007699825,-0.165835816,2.1933898092473596,-1.32E-04,1.8384723553379763E-4,1.0378443459681805E-5,Garage
204,-0.020970445,0.011824046071727299,7.754201696760664E-4,-34.5,4.083949944972992,-25.30706959,-8.826943855,-56.57579067,10.573007841110229,-43.68746696,0.005935391,-0.001120148,-0.001617491,9.819301975583567,1.6394145546607601,0.075754325,45,3.5177407264709473,1.3439557552337646,38.178001403808594,0.1647704541683197,55.459449768066406,155,-86.9096497,40.4260284,9.819301975583567,1.6394145546607601,0.075754325,-0.893399387,-0.075889098,0.033150530049523105,0.44154524687424446,-0.007892069,-0.165632834,2.2228947634835845,-4.89E-05,6.52361150324634E-5,1.645728971727771E-4,Garage
205,-0.020863695,0.011847768227560717,6.212257125722335E-4,-27.44444444,3.9787859416007993,-25.07270756,-8.888553829,-56.68107681,10.807247762680054,-43.74883297,-0.002361112,0.003210901,-0.001338003,9.814063331455861,1.6444557488543317,0.076750367,45,4.230792045593262,1.3538786172866821,37.737998962402344,0.13618654012680054,64.99867248535156,155,-86.9096486,40.4260283,9.814063331455861,1.6444557488543317,0.076750367,-0.899462771,-0.076367292,0.032063984,0.4290590051887105,-0.007960578,-0.165652556,2.250746358945532,5.782289132114174E-5,8.895833642014022E-5,1.037844176431304E-5,Garage
206,-0.021041612,0.012073129,6.330868249614407E-4,-25.75,3.5148199367523194,-24.32704351,-8.770945892,-57.14504295,11.55303379058838,-43.63159111,-5.51E-04,-0.001621283,0.002867158,9.811895773960995,1.6393596014151206,0.0818075,0,3.509999990463257,1.3638551235198975,36.85599899291992,0.097752936,0,155,-86.9096481,40.4260267,9.811895773960995,1.6393596014151206,0.0818075,-0.904843071,-0.076766101,0.031028351737457573,0.41760123991271825,-0.008074349,-0.165595065,2.2761409930812504,-1.20E-04,3.1431946107774106E-4,2.2239549067413923E-5,Garage
207,-0.020934862,0.012179879358635076,6.093646041388867E-4,-30.33333333,4.053571953773498,-24.99377354,-8.941989775,-56.60568108,10.886181735992432,-43.8025132,-0.001074347,0.001970903,-1.63E-04,9.810500228289262,1.6422720024886641,0.075931464,0,4.207897186279297,1.3738359212875366,36.93199920654297,0.084984042,0,155,-86.9096478,40.4260259,9.810500228289262,1.6422720024886641,0.075931464,-0.909839738,-0.077163185,0.030301236574655596,0.40657993340955195,-0.007713406,-0.165812416,2.300456030854901,-1.33E-05,4.21069469754991E-4,-1.48E-06,Garage
208,-0.020650196,0.014458695467837263,0.001131253,-25,3.7329559206962584,-24.92520943,-8.964559841,-56.92763882,10.95498978614807,-43.82422909,-0.001899682,3.2494947748276795E-4,-1.78E-04,9.806844239096039,1.6427569539801588,0.042580047,0,4.224618434906006,1.3839164972305298,37.16999816894531,0.066759415,0,155,-86.9096478,40.4260255,9.806844239096039,1.6427569539801588,0.042580047,-0.914290583,-0.076900505,0.030947893713284463,0.39646620889311857,-0.004446693,-0.1659216,2.3229028877702733,2.713229487993691E-4,0.002698403,5.204062321160025E-4,Garage
209,-0.02095676,0.011723568690985512,6.343413719710392E-4,-33.625,3.7292958974838255,-25.11918959,-9.019825869,-56.93056705,10.761009759902954,-43.87986122,-0.002080275,-0.001758274,1.1515916468432316E-4,9.800080975282539,1.643962080038867,0.055217867,0,4.016590595245361,1.3938096761703491,37.33599853515625,0.044593297,0,155,-86.9096479,40.4260253,9.800080975282539,1.643962080038867,0.055217867,-0.918746051,-0.077611818,0.02960655,0.38599962855760866,-0.005591822,-0.16623392,2.345637092223534,-3.52E-05,-3.52E-05,2.349409400127255E-5,Garage
210,-0.020946723,0.011657990451938318,7.872812769791672E-4,-47.55555556,5.460109925,-25.75297958,-8.396283798,-55.19950897,10.127097816467286,-43.25717327,0.001351069,0.002328282,0.003092089,9.805604249528312,1.6465465605837628,0.059887356047396485,0,3.8254542350769043,1.4038748741149902,37.33700180053711,0.024034416303038597,0,155,-86.9096481,40.4260254,9.805604249528312,1.6465465605837628,0.059887356047396485,-0.92292332,-0.077933261,0.028642301,0.3759097303580312,-0.005802299,-0.166151966,2.367536637389544,-2.52E-05,-1.01E-04,1.7643400108514047E-4,Garage
211,-0.020970445,0.013128768,0.001048226,-46.125,2.9099439191818237,-25.20556545,-9.568215809,-57.75052876,10.67438977241516,-44.42837296,-9.37E-04,-0.004460969,0.002000565,9.802610304749127,1.643201258576032,0.05146311,0,3.743861675262451,1.413849949836731,37.35900115966797,0.014407078735530376,0,155,-86.9096481,40.4260254,9.802610304749127,1.643201258576032,0.05146311,-0.926738243,-0.078252457,0.028247095264711426,0.3663720161590761,-0.005053416,-0.166505556,2.388214359005678,-4.89E-05,0.001369958,4.3737847873380465E-4,Garage
212,-0.02123139,0.012239184940360415,0.002613893,-28.11111111,2.518689978122711,-24.17161552,-9.884317789,-58.14056278,11.70833984,-44.74410896,-0.080208686,0.43300483411955604,0.012677005410773082,9.679632649838346,2.310168625081627,0.060796280608521505,0,3.6846165657043457,1.4239108562469482,39.69599914550781,0.014079716987907887,0,155,-86.9096481,40.4260253,9.679632649838346,2.310168625081627,0.060796280608521505,-0.92841505,-0.089349274,0.03192707,0.3590061600925853,-0.004934299,-0.190002135,2.4031651529293616,-3.10E-04,4.803750266149206E-4,0.002003045,Garage
