seconds_elapsed,microphone_dBFS,magnetometerUncalibrated_z,magnetometerUncalibrated_y,magnetometerUncalibrated_x,accelerometer_z,accelerometer_y,accelerometer_x,totalAcceleration_z,totalAcceleration_y,totalAcceleration_x,accelerometerUncalibrated_z,accelerometerUncalibrated_y,accelerometerUncalibrated_x,gyroscopeUncalibrated_z,gyroscopeUncalibrated_y,gyroscopeUncalibrated_x,magnetometer_z,magnetometer_y,magnetometer_x,location_bearingAccuracy,location_speedAccuracy,location_verticalAccuracy,location_horizontalAccuracy,location_speed,location_bearing,location_altitude,location_longitude,location_latitude,orientation_qz,orientation_qy,orientation_qx,orientation_qw,orientation_roll,orientation_pitch,orientation_yaw,gyroscope_z,gyroscope_y,gyroscope_x,class
0,-135.5555556,-109.2344188,18.576845755943886,-28.28616881,-0.004779017,-0.001059389,-0.001640434,9.930099941435314,-0.242907105,-0.187423531,9.928487614222936,-0.244153367,-0.188050223,-0.021264088,0.012435694703379192,9.286529132844629E-4,-136.8057381,24.549672615237352,16.42566318046756,45,1.5,1,12.102999687194824,0,0,160.09999084472656,-86.9154839,40.3848642,-0.521914088,0.014331806126202261,-0.005514509,0.8528597146965736,0.018696385977226636,0.024368602132727932,1.0981033402819966,3.193065217188136E-4,-0.001013451,4.8590120356741613E-4,Home
1,-119,-109.0321304,18.614393615722655,-28.39549953,-0.020170119,-0.003064554,-0.004334102,9.893348823473291,-0.249617282,-0.190824702,9.893348823473291,-0.249617282,-0.190824702,-0.021468612,0.012654323790909595,5.026146067640952E-4,-136.6318233,24.55359752655029,16.364469661712647,45,1.5,1,12.102999687194824,0,0,160.09999084472656,-86.9154839,40.3848642,-0.522588526,0.014515337452871127,-0.005685776,0.8524423727711428,0.018811141348724227,0.024867278460449387,1.0996836632200815,6.375347548932994E-5,-7.84E-04,-1.08E-04,Home
2,-148.5,-108.9552702,18.512401504516603,-28.39196135,-0.010505176,-0.003167224,-0.004630073,9.873091105118538,-0.254022515,-0.190894396,9.873091105118538,-0.254022515,-0.190894396,-0.021409306,0.012618740396664559,7.635590663288259E-4,-136.5549635,24.45172758102417,16.368373699188233,45,1.5,1,12.102999687194824,0,0,160.09999084472656,-86.9154839,40.3848642,-0.523222588,0.014666451349203448,-0.005881888,0.8520495243442868,0.018845179977202878,0.025373683,1.1011704264335263,1.2305903517487412E-4,-8.20E-04,1.527118000418888E-4,Home
3,-152.5555556,-108.8747498,18.468359603881837,-28.33742744,0.005089325,-0.001205251,-0.003874641,9.883484904582684,-0.253550044,-0.188940957,9.883484904582684,-0.253550044,-0.188940957,-0.021350001,0.012666185,7.872812939328549E-4,-136.474565,24.408905601501466,16.422785758972168,78.89798736572266,1.7846568822860718,1.0296807289123535,15.41100025177002,0.7335677742958069,49.78915023803711,160.09999084472656,-86.9154811,40.3848815,-0.523369947,0.014667938,-0.005981544,0.8519583078264032,0.018739030524654296,0.025548351349905858,1.1015168000193476,1.823645937301725E-4,-7.72E-04,1.7643403273202407E-4,Home
4,-149.2222222,-108.8288781,18.513377590179445,-28.37463747,0.010315922857488244,0.002089275,-0.002400116,9.905824152011316,-0.248807092,-0.188571267,9.905824152011316,-0.248807092,-0.188571267,-0.021622806,0.013093185014299397,5.737812816644612E-4,-136.4289377,24.45367956161499,16.385087623596192,76.26076508,1.687512993812561,1.0396454334259033,16.437999725341797,0.7752366065979004,30.566591262817383,160.09999084472656,-86.9154773,40.3848868,-0.523172531,0.014644451321835079,-0.005882604,0.8520806344967444,0.018808404435810534,0.025350766545794542,1.101053228656065,-9.04E-05,-3.45E-04,-3.71E-05,Home
5,-148.25,-108.8410782,18.501909732818604,-28.4039175,0.016120763,5.292009960100489E-4,-0.002866326,9.936245492361124,-0.247218653,-0.190197457,9.936245492361124,-0.247218653,-0.190197457,-0.021563501,0.013033879441616027,6.92392398209935E-4,-136.4417473,24.441723499298096,16.356295661926268,63.20654297,1.7293062210083008,1.049660563468933,16.87000084,1.1920570135116577,42.724430084228516,160.09999084472656,-86.9154633,40.3848857,-0.522781322,0.014581765,-0.005712422,0.8523229406875314,0.01889105,0.024986406336131604,1.1001351759271714,-3.11E-05,-4.05E-04,8.154513135787497E-5,Home
6,-145.2222222,-108.8515702,18.540949535369872,-28.40489344,-0.010412938,-0.001667677,-0.002462911,9.916707890704998,-0.247723933,-0.189268205,9.916707890704998,-0.247723933,-0.189268205,-0.021599084,0.012927129457804184,6.923923897330912E-4,-136.4512639,24.48100757598877,16.35507572174072,73.22653198242188,1.885576844215393,1.0596388578414917,18.09399986,0.9789093732833862,41.08734130859375,160.09999084472656,-86.9154516,40.3848876,-0.522491122,0.014495844,-0.005649653,0.8525027430173263,0.018818570753035037,0.024783137,1.099455142484128,-6.67E-05,-5.12E-04,8.154511440418733E-5,Home
7,-145.625,-108.8064304,18.47848554611206,-28.39586552,-0.012244032,0.001319847,-0.001364501,9.888284378,-0.247233172,-0.184621948,9.888284378,-0.247233172,-0.184621948,-0.021567606,0.012369657154732313,6.695825616658952E-4,-136.4058788,24.418543605804444,16.36373773574829,89.98020935058594,2.497218370437622,1.0696407556533813,17.770999908447266,0.672031045,59.19051742553711,160.09999084472656,-86.9154438,40.3848785,-0.522669518,0.014442474921592154,-0.005859459,0.8523928276621379,0.018503054242151287,0.025089125596703246,1.099875351557365,-3.52E-05,-0.001068983,5.8735285934884676E-5,Home
8,-143.5555556,-108.7848363,18.52813959121704,-28.38171352,-0.002576921,-5.11E-04,-0.003633821,9.886475174,-0.247131536,-0.182856369,9.886475174,-0.247131536,-0.182856369,-0.021587223,0.013294823946955713,5.144757146323191E-4,-136.3850163,24.468319549560547,16.37837760925293,90.57337951660156,1.9710149765014648,1.0796425342559814,17.524999618530273,0.4764508306980133,124.73290252685547,160.09999084472656,-86.9154371,40.3848639,-0.52224994,0.014237298024366202,-0.005900457,0.8526531567851316,0.018122529285480676,0.024935567245176694,1.0988938519098226,-5.49E-05,-1.44E-04,-9.64E-05,Home
9,-138.375,-108.8671862,18.513255672454832,-28.41453142,0.002678973,1.7280326884927102E-4,-0.003850005,9.893070091321631,-0.247721028,-0.189407593,9.893070091321631,-0.247721028,-0.189407593,-0.021646528,0.013022018334312924,4.907534960702568E-4,-136.4671234,24.453679580688476,16.345559616088867,90.57337951660156,1.9710149765014648,1.0796425342559814,17.524999618530273,0.4764508306980133,124.73290252685547,160.09999084472656,-86.9154371,40.3848639,-0.522777638,0.014545325,-0.005777765,0.8523253972090564,0.01876071,0.025059642414878874,1.1001272733929088,-1.14E-04,-4.17E-04,-1.20E-04,Home
10,-138.5555556,-108.8370522,18.50569164276123,-28.37939554,0.001497315,-0.001052317,-0.003086263,9.895915920294604,-0.249152656,-0.187154158,9.895915920294604,-0.249152656,-0.187154158,-0.021539778,0.012440823836848863,9.058924110434515E-4,-136.4360133,24.446359519958495,16.38057373046875,76.73172760009766,1.918462872505188,1.098628044128418,16.072999954223633,0.9168742299079895,149.86952209472656,160.09999084472656,-86.915418,40.3848187,-0.522870914,0.014480990285361275,-0.005821511,0.8522689469809671,0.018602490388941996,0.025069019422658437,1.1003472388369366,-7.41E-06,-9.98E-04,2.9504513740991647E-4,Home
11,-140.375,-108.8121644,18.550343570709227,-28.3676836,0.014202599,0.001552131,-0.002472833,9.919440581248356,-0.244715007,-0.186041961,9.919440581248356,-0.244715007,-0.186041961,-0.021883751,0.013460879394947325,3.0097571140589213E-4,-136.4121017,24.491255588531494,16.392041568756103,77.30939483642578,2.4033310413360596,1.1086280345916748,15.512999534606934,1.0978591442108154,134.7869873046875,160.09999084472656,-86.9154065,40.3848084,-0.522594672,0.014381288071569888,-0.005752225,0.8524405053518351,0.018512944175491056,0.024840605,1.0997000654924263,-3.51E-04,2.223954737204516E-5,-3.10E-04,Home
12,-126.8888889,-108.9117161,18.59109172821045,-28.3366954,0.009799541,0.001050827,-0.003283424,9.942758986093466,-0.241930631,-0.18898943,9.942758986093466,-0.241930631,-0.18898943,-0.021373723,0.012879685001465881,0.001036365,-136.5109215,24.53114953994751,16.423029594421386,94.08362579345703,1.8588436841964722,1.1196444034576416,14.92199993133545,0.2854970097541809,0.7426785230636597,160.09999084472656,-86.9153955,40.3848063,-0.522355925,0.014396557466859378,-0.005561866,0.8525877137785977,0.018744691645780815,0.024526720975064538,1.0991390827790046,1.5864235143294757E-4,-5.59E-04,4.2551734543504936E-4,Home
13,-124.7777778,-109.0162694,18.69076560974121,-28.42233944,0.004642246,0.003270587,-9.75E-05,9.946191353,-0.230169791,-0.186852151,9.946191353,-0.230169791,-0.186852151,-0.02133814,0.013045740521793227,0.001487087,-136.6163289,24.63045763015747,16.337751712799072,90.32878875732422,2.229461908340454,1.1297218799591064,14.607999801635742,0.5486389398574829,0.009537485,160.09999084472656,-86.9153852,40.3848105,-0.520987659,0.014088558241073947,-0.005108094,0.8534321426187904,0.018730513841926474,0.023401053622364998,1.0959337058576566,1.9422569142618371E-4,-3.93E-04,8.762395913595135E-4,Home
14,-139.5,-109.017978,18.679907665252685,-28.44051737,-0.004690763,-0.002386211,-0.001836909,9.936779744416764,-0.241474718,-0.189616675,9.936779744416764,-0.241474718,-0.189616675,-0.022215862,0.013686240569335742,-5.41E-04,-136.6177927,24.619721565246582,16.31920763015747,93.95011138916016,1.3879841566085815,1.139699935913086,14.192999839782715,0.2493315488100052,0.002998592,160.09999084472656,-86.9153784,40.3848142,-0.521905264,0.014341262774994073,-0.005325914,0.8528652017556347,0.018908789345216982,0.024056914597026354,1.0980828051428193,-6.83E-04,2.4760067033427724E-4,-0.001152011,Home
15,-142.8888889,-109.1056956,18.685763778686525,-28.44966753,-1.69E-05,-2.45E-04,-3.77E-04,9.936727514544737,-0.24328966,-0.190847933,9.936727514544737,-0.24328966,-0.190847933,-0.021708571,0.013262433949141549,5.286178107221181E-4,-136.7045351,24.625577564239503,16.309813594818117,72.06108856201172,1.3831124305725098,1.1496809720993042,13.38700008392334,0.6854713559150696,4.862587957177311E-4,160.09999084472656,-86.9153757,40.3848147,-0.522591583,0.014563242663056232,-0.005424171,0.8524414788071926,0.019166257339887895,0.024471287884247992,1.0996891821806247,-1.76E-04,-1.76E-04,-8.22E-05,Home
16,-133.25,-109.0678757,18.67722381591797,-28.48004557,-0.001995985,0.00110045,-9.04E-04,9.933849714334729,-0.24172155,-0.189779294,9.933849714334729,-0.24172155,-0.189779294,-0.021693973,0.013128768354292634,5.619201704054999E-4,-136.6673253,24.617647457122803,16.280045614242553,85.55597686767578,1.834693431854248,1.109144687652588,11.883999824523926,0.5952261090278625,359.9991760253906,160.09999084472656,-86.9153764,40.3848208,-0.522460746,0.014487644,-0.00545512,0.8525227858024893,0.019008735,0.024442123068333828,1.0993832847447071,-1.62E-04,-3.10E-04,-4.89E-05,Home
17,-126.2222222,-108.9760097,18.674417705535888,-28.36987938,-0.006935027,-3.03E-05,-7.96E-04,9.921571870451992,-0.243980792,-0.189268206,9.921571870451992,-0.243980792,-0.189268206,-0.021670251,0.013306685036174881,4.433090459483052E-4,-136.5766792,24.614475479125975,16.390211791992186,90.36850739,2.1756837368011475,1.1191370487213135,11.182000160217285,0.5528565049171448,8.929198957048357E-4,160.09999084472656,-86.9153756,40.3848247,-0.522597502,0.01451028,-0.005513666,0.8524381477855941,0.018982195629946238,0.024568695828173923,1.0997040873592339,-1.38E-04,-1.32E-04,-1.68E-04,Home
18,-144.875,-109.0335938,18.635743618011475,-28.40159941,-0.00181325,-0.00125614,-0.001420697,9.920320297907857,-0.244683539,-0.189059125,9.920320297907857,-0.244683539,-0.189059125,-0.021587223,0.012986434985277722,7.161146139463826E-4,-136.633409,24.57519151687622,16.35873559951782,90.36850739,2.1756837368011475,1.1191370487213135,11.182000160217285,0.5528565049171448,8.929198957048357E-4,160.09999084472656,-86.9153756,40.3848247,-0.522508559,0.014469269,-0.005517985,0.8524933596259182,0.018910307310593937,0.024531213,1.0994959352085891,-5.49E-05,-4.52E-04,1.0526734144309337E-4,Home
19,-138.5555556,-109.0152937,18.657337608337404,-28.48175343,-0.016619173,-0.002063572,-0.003131536,9.886913070311913,-0.249405744,-0.188733887,9.886913070311913,-0.249405744,-0.188733887,-0.021646528,0.012962713,3.958645969565994E-4,-136.6162065,24.597517566680906,16.278825693130493,97.51764678955078,1.502664328,1.1391503810882568,10.413000106811523,0.17887131869792938,0.002938634,160.09999084472656,-86.9153645,40.3848248,-0.52296364,0.014523211278889364,-0.005747062,0.8522117392530719,0.018749524305746394,0.024988304136447537,1.1005640921083468,-1.14E-04,-4.76E-04,-2.15E-04,Home
20,-124.625,-109.0514058,18.696011753082274,-28.44564138,0.006414904,0.001869678,-0.001159143,9.896810309400836,-0.247755875,-0.188594497,9.896810309400836,-0.247755875,-0.188594497,-0.021836306,0.013330407305032883,5.500590546255552E-4,-136.6518301,24.63606960296631,16.314449729919435,78.31284332,1.475974202156067,1.1491312980651855,10.295000076293945,0.5939344763755798,359.99993896484375,160.09999084472656,-86.9153653,40.3848215,-0.523380552,0.014675595661968861,-0.005791053,0.8519529653984366,0.018951137758140425,0.025231938791072484,1.101540748355458,-3.04E-04,-1.08E-04,-6.08E-05,Home
21,-126.8888889,-109.0953259,18.684177799224855,-28.41184753,-4.71E-04,-8.15E-04,-9.61E-04,9.905847280928231,-0.248894209,-0.18845511,9.905847280928231,-0.248894209,-0.18845511,-0.021753278,0.013105046148728398,5.975035070079985E-4,-136.6952628,24.62435758590698,16.347389755249022,85.78679656982422,1.9126944541931152,1.159170150756836,10.767000198364258,0.6081849932670593,359.9986572265625,160.09999084472656,-86.9153667,40.3848217,-0.523097119,0.014602054362592189,-0.005712733,0.8521288245627023,0.018916074928004765,0.025015164618787257,1.100876055874871,-2.21E-04,-3.34E-04,-1.33E-05,Home
22,-124,-109.0270059,18.675393657684324,-28.44039537,-0.009792948,-0.001448978,-0.002027297,9.880269513546843,-0.252323727,-0.189965144,9.880269513546843,-0.252323727,-0.189965144,-0.021788862,0.013199935025237138,5.500590580162927E-4,-136.626577,24.614963455200197,16.31957363128662,85.78679656982422,1.9126944541931152,1.159170150756836,10.767000198364258,0.6081849932670593,359.9986572265625,160.09999084472656,-86.9153667,40.3848217,-0.523579766,0.014733688164393879,-0.005835798,0.8518292429377732,0.018997405863647322,0.025373454,1.1020078878958248,-2.56E-04,-2.39E-04,-6.08E-05,Home
23,-138.375,-109.0921534,18.653677730560304,-28.44344551,-7.36E-04,3.5657647710580093E-4,-8.59E-04,9.881152301,-0.25177779,-0.18845511,9.881152301,-0.25177779,-0.18845511,-0.021779053,0.013215445716363879,5.051236937735946E-4,-136.6917245,24.594101428985596,16.317011528015136,45,0.25,1.1791757345199585,10.746000289916992,0.44314587116241455,317.4433288574219,160.09999084472656,-86.915388,40.3848228,-0.523738255,0.014766176007329844,-0.005893464,0.8517308624891134,0.018987667782662008,0.025509280869020864,1.1023798504701028,-2.47E-04,-2.23E-04,-1.06E-04,Home
24,-128.3333333,-109.0078519,18.66843988418579,-28.45003336,0.002596031,0.001498431,-1.74E-05,9.886614651355929,-0.252149493,-0.18808341,9.886614651355929,-0.252149493,-0.18808341,-0.021729556,0.013318546143477982,2.4167014437374994E-4,-136.6071797,24.608741512298582,16.309813690185546,45,0.25,1.1791757345199585,10.746000289916992,0.44314587116241455,317.4433288574219,160.09999084472656,-86.915388,40.3848228,-0.523939405,0.014822538,-0.005942339,0.8516057845458244,0.019026439962456527,0.025656114160580543,1.1028517577254657,-1.97E-04,-1.20E-04,-3.69E-04,Home
25,-143.125,-108.9850377,18.659289722442626,-28.4297814,0.00292853,0.001108916,-0.00169807,9.891536851531093,-0.250639458,-0.189059124,9.891536851531093,-0.250639458,-0.189059124,-0.021670251,0.013140629434469834,6.805312807346215E-4,-136.5848535,24.599225444793703,16.329821643829344,45,0.22360679507255554,1.1991289854049683,10.291999816894531,1.7339329719543457,271.17254638671875,160.09999084472656,-86.9154386,40.3848213,-0.5236443,0.014733033842470461,-0.005881594,0.8517892528506159,0.018946391,0.025452252061476985,1.102159646,-1.38E-04,-2.98E-04,6.968400823133229E-5,Home
26,-148.5555556,-108.9888199,18.66392574310303,-28.3690255,0.009012213,0.001158645,-0.001422982,9.905405906,-0.249791516,-0.188733886,9.905405906,-0.249791516,-0.188733886,-0.021670251,0.013081324,5.500590591465386E-4,-136.5888786,24.603983535766602,16.39106575012207,45,0.6767569780349731,1.2092373371124268,9.690999984741211,1.2550300359725952,272.73748779296875,160.09999084472656,-86.9154499,40.3848219,-0.523514684,0.014698219666420256,-0.005847696,0.8518697619438171,0.018926416,0.025355149,1.1018556252266596,-1.38E-04,-3.57E-04,-6.08E-05,Home
27,-146.125,-108.98577,18.64062364578247,-28.42087555,0.019123355161796494,0.00281523,-0.001434405,9.945497127679678,-0.243993133,-0.18825072,9.945497127679678,-0.243993133,-0.18825072,-0.021539778,0.013294824,5.026146112850786E-4,-136.5848532,24.581413497924803,16.339703769683837,45,0.471699059,1.219158649,9.295000076293945,0.7346646189689636,269.89703369140625,160.09999084472656,-86.9154535,40.3848215,-0.522850707,0.014520688597293734,-0.005672718,0.8522816809635718,0.018826366646341908,0.024856379,1.1002986651022457,-7.41E-06,-1.44E-04,-1.08E-04,Home
28,-151.6666667,-109.0176115,18.67917568206787,-28.36756153,0.00499717,0.00120542,-6.55E-04,9.952057347714323,-0.243068964,-0.187618784,9.952057347714323,-0.243068964,-0.187618784,-0.021705834,0.013294824,4.907535005912401E-4,-136.6173055,24.61825740814209,16.392407646179198,45,0.4579301178455353,1.2291535139083862,9.126999855041504,0.3222786486148834,263.6032715,160.09999084472656,-86.9154533,40.3848209,-0.522480237,0.014433137349133353,-0.005556547,0.8525111137084591,0.018809222191282848,0.024558566022411132,1.0994300680253113,-1.73E-04,-1.44E-04,-1.20E-04,Home
29,-152.125,-108.9710079,18.68710575,-28.44429939,-0.001117234,8.155242042634093E-4,-4.87E-04,9.947640557890956,-0.243481319,-0.188431879,9.947640557890956,-0.243481319,-0.188431879,-0.021705834,0.013354129501555151,4.6703127750819456E-4,-136.5714325,24.62716356277466,16.316279697418214,45,0.4580393135547638,1.2391657829284668,8.661999702453613,0.18055051565170288,248.36280822753906,160.09999084472656,-86.9154539,40.3848201,-0.522539105,0.014466100137282922,-0.005544295,0.8524745575432638,0.018876561587585987,0.024573420997238853,1.0995677003582705,-1.73E-04,-8.45E-05,-1.44E-04,Home
30,-147.7777778,-109.0445737,18.651969623565673,-28.37390545,-0.001919765,7.399430552732598E-4,-5.08E-04,9.943847989573062,-0.243176409,-0.188431878,9.943847989573062,-0.243176409,-0.188431878,-0.021729556,0.013354129519639085,4.907535005912401E-4,-136.6445103,24.592515563964845,16.38703977584839,0,0.4134005308151245,1.2491403818130493,8.381999969482422,0.080901176,0,160.09999084472656,-86.9154538,40.3848198,-0.522487706,0.014458505,-0.005520831,0.8525063441795053,0.018889603,0.024524329,1.099447123055319,-1.97E-04,-8.45E-05,-1.20E-04,Home
31,-149.8888889,-108.9534399,18.695279750823975,-28.43649153,-0.00542693,-5.83E-04,-6.43E-04,9.932792589502426,-0.245368861,-0.188524805,9.932792589502426,-0.245368861,-0.188524805,-0.021755559,0.013274181061066113,5.286178202368319E-4,-136.5530106,24.63545951843262,16.32359977722168,45,0.5798275470733643,1.1088987588882446,7.921999931335449,0.4084922969341278,330.6043395996094,160.09999084472656,-86.9154573,40.3848257,-0.522630453,0.014493896258780016,-0.005562942,0.8524179567511265,0.018901842270189755,0.024636301426933363,1.0997817413165019,-2.23E-04,-1.64E-04,-8.22E-05,Home
32,-147.375,-109.0476237,18.703331718444826,-28.51566944,0.001378458,2.256837284680709E-4,-0.00186078,9.936651998353236,-0.245377573,-0.189872219,9.936651998353236,-0.245377573,-0.189872219,-0.021670251,0.013330407295990917,6.09364616571591E-4,-136.6485374,24.64290163040161,16.24429962158203,45,0.8357033133506775,1.1190125942230225,7.350999832,0.31576213240623474,336.8714904785156,160.09999084472656,-86.9154582,40.3848279,-0.522747577,0.014526189,-0.005592253,0.8523453965927791,0.018922899,0.024722641424357313,1.1000562443316562,-1.38E-04,-1.08E-04,-1.48E-06,Home
33,-149.3333333,-109.0377415,18.70320966720581,-28.43685749,-8.84E-05,-1.35E-04,-4.78E-04,9.937125381914157,-0.245281744,-0.190150996,9.937125381914157,-0.245281744,-0.190150996,-0.021622806,0.013294823919829814,6.568090661284197E-4,-136.6388992,24.643267555236818,16.32250165939331,45,1.0536128282546997,1.1289775371551514,7.327000141143799,0.1895635724067688,344.70745849609375,160.09999084472656,-86.9154581,40.3848289,-0.522785676,0.014582908395858645,-0.005527332,0.8523214858712502,0.019086396864172326,0.024672103485146774,1.1001446756344397,-9.04E-05,-1.44E-04,4.596180097172851E-5,Home
34,-143.875,-108.9888199,18.69186363220215,-28.44271345,-0.006690173,-8.50E-04,-5.56E-04,9.925486352,-0.245911893,-0.189965144,9.925486352,-0.245911893,-0.189965144,-0.021717695,0.013306685045216848,6.093646188320827E-4,-136.5883913,24.632409496307375,16.317377624511717,0,1.1981652975082397,1.1389920711517334,7.659999847412109,0.079932392,0,160.09999084472656,-86.915458,40.3848288,-0.522779998,0.014576653,-0.005533465,0.8523250274287845,0.019069470447099324,0.024675894112696925,1.1001314700228497,-1.85E-04,-1.32E-04,-1.48E-06,Home
35,-151.2222222,-108.9551478,18.706259841918946,-28.50969151,0.002621123,6.100881157569515E-4,-6.82E-04,9.929181401546185,-0.245557671,-0.189700219,9.929181401546185,-0.245557671,-0.189700219,-0.021610945,0.013294823974081613,5.500590602767844E-4,-136.5556953,24.646805477142333,16.250521602630617,0,1.2854959964752197,1.1489357948303223,8.315999984741211,0.036403048783540726,0,160.09999084472656,-86.9154572,40.3848279,-0.522918686,0.014600849005131467,-0.005590811,0.8522391695420719,0.019046758,0.024802073,1.1004568060624946,-7.86E-05,-1.44E-04,-6.08E-05,Home
36,-150.125,-109.0847118,18.691497745513917,-28.41587349,-0.011400112,-0.002329229,-0.001219718,9.911515698849577,-0.248934864,-0.190336844,9.911515698849577,-0.248934864,-0.190336844,-0.021575362,0.013188073917934038,6.449479537392126E-4,-136.6855028,24.630335540771483,16.34397373199463,0,1.334166407585144,1.1590349674224854,9.336999893188477,0.081430823,0,160.09999084472656,-86.9154562,40.3848271,-0.522967089,0.014615196797960592,-0.005601309,0.8522091351666496,0.019058814,0.024836061,1.1005702909914035,-4.30E-05,-2.51E-04,3.4100687452275487E-5,Home
37,-153.4444444,-109.0227354,18.691619663238527,-28.42941545,-0.013269878,-0.001804398,-0.001391323,9.882035079511624,-0.252779641,-0.190081301,9.882035079511624,-0.252779641,-0.190081301,-0.021622806,0.013176212846798804,6.330868430453741E-4,-136.6235266,24.63131145477295,16.32994364,0,1.3829317092895508,1.1689952611923218,9.86400032,0.088383168,0,160.09999084472656,-86.9154555,40.3848265,-0.523606345,0.014761098,-0.005810167,0.8518126190287395,0.019070174,0.025359073,1.102069810756202,-9.04E-05,-2.62E-04,2.2239577323559996E-5,Home
38,-149.5555556,-109.0067538,18.683079643249513,-28.45954952,-0.001993772,5.651501197259403E-4,-5.25E-04,9.881988608721391,-0.251147643,-0.189546982,9.881988608721391,-0.251147643,-0.189546982,-0.021777,0.013199935052363039,6.093646188320827E-4,-136.6065695,24.62240547180176,16.300541629791258,0,0.8572630882263184,1.1789201498031616,10.505999565124512,0.062008031,0,160.09999084472656,-86.9154553,40.3848261,-0.523769634,0.014811267,-0.005842774,0.8517111325726926,0.019116668193375024,0.02547085,1.102452715623726,-2.45E-04,-2.39E-04,-1.48E-06,Home
39,-142.625,-109.0736095,18.674783687591553,-28.48224138,0.002776146,-8.15E-04,-9.18E-04,9.888354014424445,-0.252823199,-0.189361131,9.888354014424445,-0.252823199,-0.189361131,-0.021848167,0.013330407277906983,5.263368360634929E-4,-136.6725711,24.614719581604003,16.27821569442749,0,0.8572630882263184,1.1789201498031616,10.505999565124512,0.062008031,0,160.09999084472656,-86.9154553,40.3848261,-0.523753096,0.014790548400465146,-0.005864594,0.8517215095677422,0.019058995111619386,0.025485955,1.1024142573180709,-3.16E-04,-1.08E-04,-8.45E-05,Home
40,-146.4444444,-109.0679978,18.648431663513183,-28.41623943,0.002538938,0.001288662,-0.001181014,9.892628734551588,-0.251141835,-0.189454056,9.892628734551588,-0.251141835,-0.189454056,-0.021626342,0.013097975080689559,4.93376631101665E-4,-136.6683,24.58848955154419,16.343851718902588,0,0.5664803385734558,1.1989189386367798,10.847000122070312,0.092883602,0,160.09999084472656,-86.9154551,40.3848252,-0.523788543,0.014791451,-0.005887718,0.8516995327977034,0.019035252724559262,0.025527093595323656,1.1024975799597228,-9.40E-05,-3.41E-04,-1.17E-04,Home
41,-126.625,-108.9957735,18.654043731689452,-28.46430737,0.010991309452982783,0.001444497,-0.001265874,9.910606782413224,-0.249631804,-0.189035893,9.910606782413224,-0.249631804,-0.189035893,-0.021848167,0.013294823960518664,5.026146101548328E-4,-136.5961989,24.593979511260986,16.295051727294922,45,0.7337574362754822,1.2089111804962158,10.47599983215332,0.2044222503900528,160.9138184,160.09999084472656,-86.915454,40.3848228,-0.523546975,0.014717287528645066,-0.005839419,0.8518496612900669,0.018966633103136878,0.025361714468708316,1.101931131001815,-3.16E-04,-1.44E-04,-1.08E-04,Home
42,-142.2222222,-108.9671034,18.686129665374757,-28.54677937,0.012356489607431357,0.00254421,-4.53E-04,9.933803262062444,-0.246109359,-0.189244974,9.933803262062444,-0.246109359,-0.189244974,-0.021717695,0.013437157288844724,4.907535000261172E-4,-136.567164,24.626797599792482,16.211969633102417,45,0.22203603386878967,1.2189512252807617,10.052000045776367,0.3213253319263458,157.65960693359375,160.09999084472656,-86.915452,40.3848194,-0.52322293,0.014663112910410154,-0.005701775,0.8520506012786939,0.019027941,0.025063179469513662,1.101170527124868,-1.85E-04,-1.48E-06,-1.20E-04,Home
43,-145.625,-109.0231019,18.663193664550782,-28.46272141,0.00527806,4.132676471784277E-4,-7.76E-04,9.946072374732749,-0.244953602,-0.190987321,9.946072374732749,-0.244953602,-0.190987321,-0.021753278,0.013496462789192362,6.56809057086453E-4,-136.6219408,24.603373489379884,16.296637687683106,45,0.16401219367980957,1.2289763689041138,9.246999740600586,0.411390096,162.52120971679688,160.09999084472656,-86.9154505,40.3848151,-0.52282545,0.014605768413725987,-0.005518135,0.8522967331617781,0.019133823,0.024681223031965273,1.100237719,-2.21E-04,5.782288962577298E-5,4.596178627853255E-5,Home
44,-145.1111111,-109.0171242,18.66880569458008,-28.35633747,-0.002031187,6.863866905564243E-4,-5.33E-04,9.938609049870418,-0.242215773,-0.192599215,9.938609049870418,-0.242215773,-0.192599215,-0.021717695,0.013543907290740499,7.516979499837583E-4,-136.617914,24.608741550445558,16.404241638183592,45,0.16401219367980957,1.2389159202575684,8.876000404,0.35539284348487854,162.1315155029297,160.09999084472656,-86.9154494,40.3848125,-0.52265812,0.014626079,-0.00536914,0.8523999695639009,0.019329050049475095,0.024444621562668422,1.0998443203065003,-1.85E-04,1.0526734370358505E-4,1.4085067861071488E-4,Home
45,-132.25,-109.0078519,18.685885791778563,-28.2992415,0.002989056,0.001701674,0.001396297,9.944544876,-0.240545465,-0.191266096,9.944544876,-0.240545465,-0.191266096,-0.021729556,0.013176212783505037,6.686701649546768E-4,-136.6082768,24.62606550216675,16.460605697631834,45,0.16401219367980957,1.2489484548568726,8.628000259399414,0.27897465229034424,160.09889221191406,160.09999084472656,-86.9154484,40.3848106,-0.522571674,0.014616840455717253,-0.005323966,0.8524533625945304,0.019362946,0.024356006726043895,1.0996415186854243,-1.97E-04,-2.62E-04,5.7822886800158374E-5,Home
46,-148.7777778,-109.0273714,18.720167808532715,-28.3599975,-2.95E-04,-5.42E-04,-0.001799472,9.942909972181598,-0.241512468,-0.194100314,9.942909972181598,-0.241512468,-0.194100314,-0.021717695,0.013425296,4.788923718134683E-4,-136.6284068,24.65985948562622,16.40009366989136,45,0.3577708899974823,1.108517050743103,8.017999649047852,0.13605119287967682,328.7622375488281,160.09999084472656,-86.9154507,40.3848143,-0.522398568,0.014567776058701057,-0.005282708,0.8525605404261246,0.019327285545832903,0.024230447733431186,1.0992359154432723,-1.85E-04,-1.33E-05,-1.32E-04,Home
47,-143.25,-109.0571394,18.694303665161133,-28.38329948,-0.001425456,-6.28E-04,-0.001245351,9.940874322,-0.242531739,-0.193565995,9.940874322,-0.242531739,-0.193565995,-0.021682112,0.013389712796338554,4.7889238198568085E-4,-136.6570769,24.633751640319826,16.37654769897461,45,0.41231057047843933,1.1183897256851196,7.757999897003174,0.18365292251110077,334.7128601074219,160.09999084472656,-86.9154517,40.3848161,-0.522535323,0.014607744390886385,-0.005313335,0.8524759081960882,0.019359606110210557,0.024327521908630446,1.0995562782565367,-1.50E-04,-4.89E-05,-1.32E-04,Home
48,-144.1111111,-109.0238342,18.716629695892333,-28.38207951,-0.001729443,0.001425271,5.427086009429052E-4,9.937465102927199,-0.239601694,-0.191730722,9.937465102927199,-0.239601694,-0.191730722,-0.021555859,0.013379904575860845,6.225943148960001E-4,-136.6236494,24.65632164001465,16.37752368927002,45,0.6555150747299194,1.1284562349319458,7.614999771118164,0.13334043323993683,334.9158935546875,160.09999084472656,-86.9154522,40.3848169,-0.522443646,0.014583976240828633,-0.005287907,0.8525326498425924,0.019348233597926222,0.024257238417004164,1.099341447536762,-2.35E-05,-5.87E-05,1.1747044202191039E-5,Home
49,-150.125,-108.9836958,18.661607646942137,-28.37768742,-0.001157177,1.505983685984195E-4,7.446726549018934E-4,9.935501968976363,-0.240365423,-0.191010553,9.935501968976363,-0.240365423,-0.191010553,-0.021563501,0.013401573948851489,6.56809057086453E-4,-136.5836337,24.601543521881105,16.382525749206543,0,1.3756816387176514,1.138313889503479,7.744999885559082,0.046130284667015076,0,160.09999084472656,-86.9154521,40.3848167,-0.522351527,0.014548338,-0.005281303,0.852589772,0.019296973799038858,0.024206634321548407,1.0991257486991513,-3.11E-05,-3.71E-05,4.596178288779502E-5,Home
50,-141.8888889,-109.0189543,18.65245767593384,-28.44966743,-0.00825132,-6.06E-04,-9.90E-04,9.919510119169662,-0.240949109,-0.193101368,9.919510119169662,-0.240949109,-0.193101368,-0.021646528,0.013401573930767555,5.856423912280538E-4,-136.6195013,24.593125495910645,16.31030168533325,0,1.3756816387176514,1.138313889503479,7.744999885559082,0.046130284667015076,0,160.09999084472656,-86.9154521,40.3848167,-0.522388571,0.014572271200132023,-0.005268472,0.8525667427812965,0.019350158303831386,0.024210595354003814,1.0992123015875954,-1.14E-04,-3.71E-05,-2.52E-05,Home
51,-149,-109.0473798,18.667097644805906,-28.31510136,-0.008654631,-0.001544901,-0.00118066,9.908611723520224,-0.243167697,-0.19365892,9.908611723520224,-0.243167697,-0.19365892,-0.021563501,0.013259240588878543,5.737812799690924E-4,-136.6475606,24.60739959716797,16.44498975753784,0,0.35608989000320435,1.1573079824447632,7.636000156402588,0.062011715,0,160.09999084472656,-86.9154512,40.3848149,-0.52260865,0.014638266263945588,-0.005315113,0.8524304026538886,0.019407695738001933,0.024364120986999818,1.0997279512072073,-3.11E-05,-1.79E-04,-3.71E-05,Home
52,-146.125,-109.0550656,18.686373825073243,-28.4203874,-0.010988661,-0.001797537,-3.20E-04,9.883760892427885,-0.246915138,-0.192806287,9.883760892427885,-0.246915138,-0.192806287,-0.021634667,0.013365990654068086,6.686701756920123E-4,-136.6548811,24.62618757247925,16.339825706481932,0,0.3405877351760864,1.168313742,7.466000080108643,0.091651209,0,160.09999084472656,-86.9154507,40.3848138,-0.5231324,0.014765181,-0.00547469,0.8521059033940139,0.019442196103554327,0.024780866319259392,1.1009558809613718,-1.02E-04,-7.26E-05,5.782290883995231E-5,Home
53,-149.8888889,-109.0814178,18.653921661376952,-28.38342146,-0.002317262,-2.38E-04,1.1465893787087746E-4,9.882058338054176,-0.247477101,-0.192729668,9.882058338054176,-0.247477101,-0.192729668,-0.021622806,0.013377851707119387,5.144757236742858E-4,-136.6820866,24.594223556518553,16.376791648864746,45,0.23430748283863068,1.1783303022384644,7.244999885559082,0.1695239245891571,346.1589660644531,160.09999084472656,-86.9154518,40.3848169,-0.523446021,0.014858574344261178,-0.005542236,0.8519112433044655,0.019521588224519805,0.025000916558851317,1.1016910770564403,-9.04E-05,-6.08E-05,-9.64E-05,Home
54,-149.125,-109.0784897,18.668073596954347,-28.36756151,0.002637974,2.8465717162900756E-4,-3.30E-04,9.888284368422426,-0.24774426,-0.19184688,9.888284368422426,-0.24774426,-0.19184688,-0.021658389,0.013199935,5.144757231091628E-4,-136.679037,24.608009624481202,16.39252965927124,45,0.2280350923538208,1.1883347034454346,6.690000057220459,0.25754162669181824,343.0870666503906,160.09999084472656,-86.9154529,40.3848196,-0.523477588,0.014823015408536184,-0.005621321,0.8518919423945899,0.019377253696467114,0.025099191651905623,1.101765937018163,-1.26E-04,-2.39E-04,-9.64E-05,Home
55,-150.7777778,-109.0582376,18.70467363357544,-28.42490137,0.002327317,0.001294355,-8.89E-04,9.892210543734356,-0.245560521,-0.191591335,9.892210543734356,-0.245560521,-0.191591335,-0.021705834,0.013128768381418533,5.856423946187912E-4,-136.6581757,24.64448760986328,16.33445785522461,45,0.2801785171031952,1.1983392238616943,6.269000053405762,0.16952203214168549,342.5367126464844,160.09999084472656,-86.9154533,40.3848205,-0.523257402,0.014744267590994974,-0.005595131,0.8520287448920093,0.019276886,0.024967114215047614,1.101249972593437,-1.73E-04,-3.10E-04,-2.52E-05,Home
56,-146.125,-109.0537238,18.638915615081785,-28.35621546,0.014668409640972432,0.002012702,-0.001310605,9.915967395004717,-0.242854074,-0.190522695,9.915967395004717,-0.242854074,-0.190522695,-0.021720318,0.013109722,2.3494115829145394E-5,-136.6536601,24.578607597351073,16.40411964416504,45,0.2801785171031952,1.1983392238616943,6.269000053405762,0.16952203214168549,342.5367126464844,160.09999084472656,-86.9154533,40.3848205,-0.522868097,0.014608321729331063,-0.005543664,0.8522703527257993,0.019110252,0.024728394417951886,1.1003378537984996,-1.88E-04,-3.29E-04,-5.87E-04,Home
57,-147.2222222,-109.011024,18.651481685638426,-28.39330347,0.015500189031212076,0.001598213,-0.002075459,9.949821342542334,-0.24380946,-0.191057015,9.949821342542334,-0.24380946,-0.191057015,-0.021634667,0.013176213,5.381979331943813E-4,-136.6112057,24.591539573669433,16.367031784057616,0,0.411460817,1.2183860540390015,6.355999946594238,0.083884314,0,160.09999084472656,-86.9154538,40.3848217,-0.522780487,0.014562986,-0.00555585,0.8523247641267129,0.019022707764095474,0.024699818795022456,1.1001329213670157,-1.02E-04,-2.62E-04,-7.26E-05,Home
58,-142.625,-109.0267622,18.652823696136476,-28.41331142,0.001547943,7.047757361699076E-4,-1.22E-04,9.949356764265634,-0.242717589,-0.187990485,9.949356764265634,-0.242717589,-0.187990485,-0.021599084,0.013176212792547003,7.398368392899198E-4,-136.6264549,24.59361349105835,16.34702372,0,0.3801315426826477,1.2284191846847534,6.59499979,0.049792439,0,160.09999084472656,-86.9154539,40.3848219,-0.522418089,0.014441608469390754,-0.005499718,0.8525494053525832,0.018884821550794018,0.024469136938597393,1.0992839637311917,-6.67E-05,-2.62E-04,1.2898957017736816E-4,Home
59,-147,-109.0257859,18.650993709564208,-28.43258751,-0.002007503,3.992330680773096E-4,-7.22E-04,9.943435650427364,-0.244009831,-0.188292491,9.943435650427364,-0.244009831,-0.188292491,-0.021539778,0.013259240606962477,5.144757225440399E-4,-136.6254791,24.590441589355468,16.327259635925294,0,0.48754486441612244,1.2383511066436768,6.960000038146973,0.026613118,0,160.09999084472656,-86.9154539,40.384822,-0.522533194,0.014459686462306281,-0.005550529,0.8524782443509519,0.018859269567629667,0.024577221787959628,1.0995539449951024,1.779166773612638E-5,-1.29E-04,-7.12E-05,Home
60,-143.5,-109.0699498,18.65343372344971,-28.35548344,-0.01200676,-0.002088522,-2.25E-04,9.923210960168104,-0.246308305,-0.188158689,9.923210960168104,-0.246308305,-0.188158689,-0.021753278,0.013259241,6.212257295259211E-4,-136.6702533,24.593369579315187,16.40460771560669,0,0.5462599992752075,1.2483232021331787,7.216000080108643,0.012406087,0,160.09999084472656,-86.915454,40.3848219,-0.522568608,0.014485233,-0.005533954,0.8524562016274165,0.018919143,0.024576447235004416,1.0996366542519875,-6.82E-05,1.2602431878212442E-4,1.630902875811585E-4,Home
61,-144.2222222,-109.0011421,18.603291625976563,-28.4133115,-0.001754603,-6.69E-04,4.2304382162186707E-4,9.91743959,-0.246542041,-0.189082355,9.91743959,-0.246542041,-0.189082355,-0.021634667,0.013342268403294017,6.093646160064681E-4,-136.6009572,24.54383737564087,16.347145614624022,45,0.6579513549804688,1.107719898223877,7.840000152587891,0.21330051124095917,332.3632813,160.09999084472656,-86.9154561,40.3848249,-0.522951478,0.014625823685845125,-0.005573369,0.8522187332505161,0.019106633,0.024799197550537517,1.1005333754622821,5.040972525235808E-5,2.090521015507142E-4,1.5122917575707424E-4,Home
62,-148.875,-109.0030939,18.63830566,-28.35963144,0.001185806,-9.39E-04,8.007526687048014E-4,9.925718659336127,-0.24639975,-0.188036947,9.925718659336127,-0.24639975,-0.188036947,-0.021599084,0.013188073954101905,5.737812833598299E-4,-136.6026642,24.578119506835936,16.40058168411255,45,0.4965883493423462,1.1176366806030273,7.835000038146973,0.1729748249053955,328.79681396484375,160.09999084472656,-86.915457,40.384826,-0.52280784,0.014564567833270842,-0.00557227,0.852307916,0.019007492159466143,0.024730041822038806,1.1001970860564594,8.599306072461085E-5,5.485764388175844E-5,1.1564584028482148E-4,Home
63,-146.7777778,-109.0221256,18.64708969116211,-28.43551552,0.003455199,-3.37E-04,-3.13E-04,9.927036952046516,-0.246263266,-0.18936113,9.927036952046516,-0.246263266,-0.18936113,-0.02167025,0.013294824,5.61920169275254E-4,-136.6221852,24.587147541046143,16.32481966018677,0,0.48754486441612244,1.1277045011520386,7.946000099182129,0.090610594,0,160.09999084472656,-86.9154573,40.3848262,-0.522905225,0.014600195,-0.005582517,0.852247494,0.019054707356737654,0.024786948,1.1004252028696746,1.4826389780105317E-5,1.6160765312413133E-4,1.0378472846073723E-4,Home
64,-151.25,-109.0266399,18.639037628173828,-28.36451141,0.004039654,-4.75E-04,6.332108034537389E-4,9.936593981622492,-0.244608037,-0.188315722,9.936593981622492,-0.244608037,-0.188315722,-0.021367906,0.013250687,6.930766931663339E-4,-136.6262112,24.578851623535158,16.394359703063966,0,0.559017003,1.137728214263916,8.81000042,0.026431415230035782,0,160.09999084472656,-86.9154574,40.3848257,-0.522640168,0.014533743557806771,-0.005505474,0.8524116925322093,0.019029591411638718,0.024580175,1.099803815667446,3.1717069214209914E-4,1.174706328758755E-4,2.3494125343859196E-4,Home
65,-149.5555556,-109.0149284,18.64794366836548,-28.41782547,2.8597266928663534E-4,3.15265169421446E-5,2.6764105824590885E-4,9.936474892699604,-0.243385491,-0.189035894,9.936474892699604,-0.243385491,-0.189035894,-0.021456751,0.013330407277906983,5.500590574511698E-4,-136.615231,24.587879581451418,16.341899700164795,0,0.4695742726325989,1.1477534770965576,9.456999778747559,0.023403391242027283,0,160.09999084472656,-86.9154573,40.3848253,-0.522558956,0.014522007603234457,-0.00546796,0.8524619311962313,0.019051124043401004,0.024502119,1.0996132857591203,2.2832640261362188E-4,1.9719099029175287E-4,9.192361663665297E-5,Home
66,-150.2222222,-109.0576279,18.616467590332032,-28.42270552,-0.012590816,-0.001907482,3.8604626377809395E-4,9.916490082601898,-0.245705715,-0.188850042,9.916490082601898,-0.245705715,-0.188850042,-0.021551639,0.013176212819672904,5.856423951839142E-4,-136.657809,24.55640344619751,16.33799575805664,0,0.4695742726325989,1.1477534770965576,9.456999778747559,0.023403391242027283,0,160.09999084472656,-86.9154573,40.3848253,-0.52262828,0.014539448463005348,-0.005488014,0.8524190002274745,0.019057911015974666,0.024556097294231062,1.099775796,1.3343750802094785E-4,4.299653431816587E-5,1.2750695210890574E-4,Home
67,-149.375,-109.0615319,18.623543491363524,-28.41379944,-0.01531325,-0.003887886,-4.93E-04,9.881988617980365,-0.250572668,-0.190731777,9.881988617980365,-0.250572668,-0.190731777,-0.021468612,0.013282962839652612,9.88920181379337E-4,-136.6618355,24.563235397338868,16.345803565979004,0,0.9889894127845764,1.1676130294799805,10.631999969482422,0.016139368,0,160.09999084472656,-86.9154573,40.3848259,-0.523167192,0.014707541111314181,-0.005591627,0.852084751,0.019220549,0.024920702,1.1010387233160075,2.1646529078953763E-4,1.4974654356053876E-4,5.307847529975245E-4,Home
68,-148.8888889,-109.0252979,18.68112760543823,-28.39879356,-0.002522126,-2.02E-04,3.8721217113791163E-4,9.880470771055956,-0.246204769,-0.190666551,9.880470771055956,-0.246204769,-0.190666551,-0.021361862,0.013247379445407576,7.279757308565731E-4,-136.6248686,24.621185569763185,16.36117567062378,0,1.0754069089889526,1.1776305437088013,11.376999855041504,0.015854489,0,160.09999084472656,-86.9154574,40.384826,-0.523183448,0.014744217,-0.005543868,0.8520744836446151,0.019332592185695194,0.024878006374228347,1.1010761955409374,3.2321529720629594E-4,1.1416320752316308E-4,2.6984029399791676E-4,Home
69,-145.75,-109.0362775,18.66368169784546,-28.39903738,0.002192377,1.0926312613255769E-5,4.1811544339633684E-4,9.886077371615809,-0.244735809,-0.191080246,9.886077371615809,-0.244735809,-0.191080246,-0.021670251,0.013401573994061321,4.314479414708189E-4,-136.6356047,24.603373565673827,16.361419677734375,0,1.1438968181610107,1.187605857849121,12.140000343322754,0.009315036,0,160.09999084472656,-86.9154574,40.384826,-0.523093565,0.014733718590611972,-0.005498347,0.852130156,0.019364948773268355,0.024787381,1.100865197413176,1.4826389780105317E-5,2.683576612362584E-4,-2.67E-05,Home
70,-139.1111111,-109.0733659,18.650505714416504,-28.37219748,0.002526385,-2.01E-04,0.001464578,9.891339348357858,-0.244773559,-0.190081301,9.891339348357858,-0.244773559,-0.190081301,-0.021622806,0.013318546170603882,6.686701734315206E-4,-136.6735474,24.590807571411133,16.38777166366577,0,1.5,1.196597933769226,12.36400032043457,0.009059357,0,160.09999084472656,-86.9154575,40.3848261,-0.523033393,0.014727760811598555,-0.005466145,0.8521673876105003,0.019390212,0.024724888262673488,1.1007239506082627,6.227083707644234E-5,1.8532987846766862E-4,2.105347348774955E-4,Home
71,-148,-109.0729998,18.64879764556885,-28.38903345,0.001538536,-0.001165437,-1.56E-04,9.893604426708036,-0.244793888,-0.190847934,9.893604426708036,-0.244793888,-0.190847934,-0.021693973,0.013176212837756838,5.381979467573313E-4,-136.6731804,24.588367538452147,16.370813674926758,0,1.5,1.196597933769226,12.36400032043457,0.009059357,0,160.09999084472656,-86.9154575,40.3848261,-0.522861262,0.014652353720468225,-0.005467981,0.8522743113989969,0.019264696,0.024645231248250285,1.1003209537672765,-8.90E-06,4.299653657865756E-5,8.006250368232287E-5,Home
72,-147.4444444,-109.02542,18.689057769775392,-28.4449094,0.017529313,7.344381167338445E-4,-7.58E-05,9.924089718790887,-0.242113577,-0.190708546,9.924089718790887,-0.242113577,-0.190708546,-0.021614595,0.013191951582064996,6.695825706209199E-4,-136.6265768,24.628993587493895,16.314449634552002,0,0.5546169877052307,1.2177002429962158,12.484999656677246,0.005255706,0,160.09999084472656,-86.9154576,40.3848261,-0.522677929,0.014604519873570938,-0.005417648,0.8523878758916488,0.019241000042082027,0.02450525,1.0998912316102247,7.048237603157759E-5,5.8735320075916556E-5,2.1144712809473276E-4,Home
73,-149.75,-109.0387177,18.657093677520752,-28.39159546,0.011539329602880385,0.001235265,3.909254537045377E-4,9.950474665002915,-0.238019063,-0.19005807,9.950474665002915,-0.238019063,-0.19005807,-0.021575362,0.013211796,6.449479531740897E-4,-136.6384113,24.59727355957031,16.3683736,0,0.36674240231513977,1.2276443243026733,12.532999992370605,0.006066814,0,160.09999084472656,-86.9154576,40.3848262,-0.522112765,0.014455235201539924,-0.005265443,0.8527376640190198,0.019161436236599116,0.024076946839256194,1.098566851569611,1.0971528437277936E-4,7.857987205091032E-5,1.86812511229327E-4,Home
74,-150.8888889,-109.0015082,18.683445739746094,-28.42490149,-0.004379606,-0.00227615,-9.10E-04,9.934465306476483,-0.241730261,-0.192683205,9.934465306476483,-0.241730261,-0.192683205,-0.021516056,0.013176212792547003,6.09364616571591E-4,-136.6012007,24.62362548828125,16.335311794281004,0,0.16401219367980957,1.2377127408981323,12.52299976348877,0.001800986,0,160.09999084472656,-86.9154576,40.3848261,-0.522215712,0.014517423588312367,-0.005236705,0.852673762,0.019294660646938584,0.024095194,1.098807430961757,1.690208434932006E-4,4.299653601353464E-5,1.5122917575707424E-4,Home
75,-150.5,-109.0518937,18.68759370803833,-28.51164345,0.003531067,8.392752084917236E-4,5.0519999948520106E-5,9.944466544586477,-0.238524344,-0.191939804,9.944466544586477,-0.238524344,-0.191939804,-0.021516056,0.013259240579836577,4.551701651189874E-4,-136.6535388,24.62740753173828,16.24844757080078,0,0.15620499849319458,1.2476595640182495,12.473999977111816,0.006323452,0,160.09999084472656,-86.9154576,40.384826,-0.522212273,0.014521910402091961,-0.00522707,0.8526758597892465,0.019312482652733626,0.024083361337051808,1.0987992795925696,1.690208434932006E-4,1.2602432047749317E-4,-2.97E-06,Home
76,-147.2222222,-109.0528697,18.645259742736815,-28.40525946,4.1673715832163985E-4,-0.001614777,2.3623997146643482E-4,9.945137674991901,-0.240576459,-0.192760271,9.945137674991901,-0.240576459,-0.192760271,-0.021456751,0.013271101714265578,6.686701756920123E-4,-136.6529283,24.585439491271973,16.35470973968506,45,0.12041594833135605,1.1071048974990845,12.140000343322754,0.11500848829746246,329.81158447265625,160.09999084472656,-86.9154589,40.3848278,-0.52219741,0.014540623276702408,-0.005186536,0.8526848907609588,0.019387155,0.024033433,1.098764081603115,2.2832640261362188E-4,1.378854311713316E-4,2.105347348774955E-4,Home
77,-142.625,-109.0298117,18.66770773,-28.40574743,-2.13E-04,-1.81E-04,6.802597092193307E-6,9.943981541013255,-0.238875717,-0.19203273,9.943981541013255,-0.238875717,-0.19203273,-0.021516056,0.013211796096372373,5.856423934885454E-4,-136.629261,24.60825355529785,16.354465713500975,45,0.34669873118400574,1.1171722412109375,11.965999603271484,0.11870510131120682,331.01495361328125,160.09999084472656,-86.9154596,40.3848288,-0.522140852,0.014514434585365856,-0.005189438,0.852719959,0.019341039552705958,0.024009741643823468,1.0986317511901116,1.690208434932006E-4,7.857987996263123E-5,1.2750695210890574E-4,Home
78,-148.4444444,-109.0551878,18.655263690948487,-28.45332748,-0.001399346,-0.001227655,8.742780361360717E-4,9.940941069889995,-0.239973395,-0.192474124,9.940941069889995,-0.239973395,-0.192474124,-0.021563501,0.013449018396147825,6.212257289607982E-4,-136.6554909,24.59568754196167,16.307007675170897,0,0.49244287610054016,1.1270968914031982,11.722000122070312,0.078317359,0,160.09999084472656,-86.9154598,40.3848291,-0.52220386,0.014557473,-0.005163838,0.8526807919289302,0.019439428755380576,0.024012457398534977,1.0987789306825804,1.2157639619686361E-4,3.1580211248845584E-4,1.6309028645091264E-4,Home
79,-139.3333333,-109.0231021,18.667463665008544,-28.40611343,-0.004910821,-4.67E-04,9.96661851707014E-4,9.931439427,-0.240019858,-0.193054906,9.931439427,-0.240019858,-0.193054906,-0.021551639,0.013354129483471217,5.856423957490371E-4,-136.6224289,24.607643451690674,16.354099655151366,0,0.4788528084754944,1.1371647119522095,11.46399974822998,0.038800857961177826,0,160.09999084472656,-86.9154599,40.3848291,-0.522407929,0.014629905229633294,-0.005188994,0.8525543936247965,0.019530965268467235,0.024135701,1.0992567793836872,1.3343750802094785E-4,2.2091321676553599E-4,1.2750695210890574E-4,Home
80,-137.25,-109.0032154,18.671977825164795,-28.37671148,-0.004422023,-0.001712479,-1.81E-04,9.921711292081666,-0.241956766,-0.194472014,9.921711292081666,-0.241956766,-0.194472014,-0.021438389,0.013321169266978709,5.75606068126105E-4,-136.6035193,24.61191349029541,16.382403831481934,0,0.5147815346717834,1.1471012830734253,11.26099967956543,0.021198945119976997,0,160.09999084472656,-86.9154599,40.3848292,-0.522486209,0.014657307398290588,-0.005199273,0.8525058821989939,0.019564746073088966,0.024183668,1.099440104686297,2.4668831611052155E-4,1.879530161834107E-4,1.1747062671929598E-4,Home
81,-131,-109.0618979,18.666609745025635,-28.43661352,-0.00608996,-0.001786679,0.00186134,9.918124986,-0.243068963,-0.192195348,9.918124986,-0.243068963,-0.192195348,-0.021599084,0.013342268376168117,6.568090621725593E-4,-136.6620792,24.606667594909666,16.323477611541747,0,0.5147815346717834,1.1471012830734253,11.26099967956543,0.021198945119976997,0,160.09999084472656,-86.9154599,40.3848292,-0.522635429,0.014687100560992088,-0.005255031,0.8524135605802814,0.019553056981378387,0.024313312421724634,1.0997899620278369,8.599306072461085E-5,2.0905210607169756E-4,1.9867362305341126E-4,Home
82,-139.75,-109.0339594,18.677467670440674,-28.37634541,-0.014609263,-0.002348494,4.904941447730204E-4,9.884337990029344,-0.246870183,-0.19277613,9.884337990029344,-0.246870183,-0.19277613,-0.021634667,0.013306685036174881,4.907534988958714E-4,-136.634628,24.617525596618652,16.38423360824585,0,0.3052867650985718,1.1671252250671387,11.125,0.005233486,0,160.09999084472656,-86.91546,40.3848291,-0.523085193,0.014778557631358939,-0.005420357,0.8521349823590622,0.019523185,0.024701156915680877,1.100844761700306,5.040972525235808E-5,1.7346877172969065E-4,3.26180575162317E-5,Home
83,-136.3333333,-109.0398159,18.665755653381346,-28.35755753,-0.002706259,-3.56E-04,0.001093332,9.882383587,-0.246150013,-0.191544872,9.882383587,-0.246150013,-0.191544872,-0.021682112,0.013223657230801374,5.619201709706228E-4,-136.6395082,24.60544755935669,16.402655754089356,0,0.44418466091156006,1.1771620512008667,11.187999725341797,0.00187512,0,160.09999084472656,-86.91546,40.3848291,-0.523260117,0.014806860741408705,-0.005496326,0.8520266378967507,0.019486918014664095,0.024864276,1.1012551726646793,2.9652790862669064E-6,9.044098500524041E-5,1.0378472846073723E-4,Home
84,-145.375,-109.031276,18.666853790283202,-28.3557275,0.002250838,-8.28E-04,6.830754499990964E-4,9.888089299201965,-0.246437724,-0.191057685,9.888089299201965,-0.246437724,-0.191057685,-0.021527917,0.013247379418281675,5.026146095897098E-4,-136.6308467,24.606789455413818,16.40509569168091,0,0.2968164384365082,1.1870951652526855,11.192999839782715,0.004188297,0,160.09999084472656,-86.9154601,40.3848291,-0.523181692,0.014762171435631017,-0.005513758,0.8520754616237382,0.01939477,0.024845426829839215,1.1010717338728673,1.5715973166911636E-4,1.1416321091390061E-4,4.447916821007011E-5,Home
85,-148,-109.0708038,18.632083587646484,-28.31656557,0.002529228,-1.15E-04,3.31874321965338E-4,9.893650860462374,-0.245528577,-0.19114994,9.893650860462374,-0.245528577,-0.19114994,-0.021599084,0.013247379526785277,6.568090627376822E-4,-136.6715953,24.572141456604005,16.443281764984132,0,0.29154759645462036,1.1970996856689453,11.217000007629395,0.002808343,0,160.09999084472656,-86.9154601,40.3848291,-0.523124614,0.014738037495069134,-0.00551296,0.852110919,0.019356113,0.024817518799484354,1.100938081741333,8.599306072461085E-5,1.1416320469754847E-4,1.9867362305341126E-4,Home
86,-147.1111111,-109.0373756,18.69430372238159,-28.41416544,0.012492031727022337,0.001404775,8.752314211095421E-4,9.912311350257651,-0.242316852,-0.190917627,9.912311350257651,-0.242316852,-0.190917627,-0.021682112,0.013318546143477982,5.2633683549837E-4,-136.6368243,24.634605655670168,16.34629171,0,0.32249030470848083,1.2071129083633423,11.282999992370605,0.001264453,0,160.09999084472656,-86.9154601,40.3848291,-0.522901407,0.014695294752934025,-0.00542672,0.852249198,0.019379900280133033,0.024620708982342657,1.1004144937089346,2.9652779560210635E-6,1.853298807281603E-4,6.820139298848447E-5,Home
87,-144.25,-109.0439639,18.65623966217041,-28.35621548,0.011626678763084042,0.001246536,4.8745864803351245E-4,9.940531684356985,-0.238887333,-0.191777184,9.940531684356985,-0.238887333,-0.191777184,-0.021693973,0.013377851725203319,5.500590580162927E-4,-136.6430473,24.596907539367677,16.403143672943116,0,0.3801315426826477,1.2170982360839844,11.31000042,0.004026507,0,160.09999084472656,-86.9154602,40.3848291,-0.522377506,0.014573083385752821,-0.005259456,0.8525735608582358,0.019361267,0.024195810707593426,1.0991863290083062,-8.90E-06,2.446354375880899E-4,9.192361663665297E-5,Home
88,-137.2222222,-109.0171237,18.64672363,-28.41819145,-0.008012579,-0.001613127,6.179743661330297E-4,9.921632942644138,-0.241274348,-0.190406538,9.921632942644138,-0.241274348,-0.190406538,-0.021520618,0.013097975098599609,6.813296265765809E-4,-136.6159627,24.58665954589844,16.341655616760253,0,0.528015137,1.2271312475204468,11.40999984741211,0.00289991,0,160.09999084472656,-86.9154602,40.3848291,-0.522223861,0.014501642892495371,-0.005267832,0.8526688510408769,0.019234997,0.024131989267726358,1.098826839373662,1.6445887740701437E-4,-3.52E-05,2.2319419076666236E-4,Home
89,-149.875,-108.9783279,18.660875568389894,-28.35865551,0.00509963,3.316386521441265E-4,-1.32E-04,9.929848032,-0.239915316,-0.19042977,9.929848032,-0.239915316,-0.19042977,-0.021575362,0.013164351667159969,4.907534881585359E-4,-136.5781433,24.59983554840088,16.401557598114014,0,0.6815423965454102,1.237097144126892,11.616000175476074,0.006734096,0,160.09999084472656,-86.9154603,40.3848292,-0.522277002,0.014495274820591061,-0.005315083,0.8526360901814063,0.019173257758171813,0.024207152,1.0989517355428158,1.0971528437277936E-4,3.113542814531083E-5,3.261805412549417E-5,Home
90,-146.3333333,-109.0043141,18.60719554901123,-28.43868746,0.007210685,-3.76E-04,3.303952008775137E-4,9.943595303,-0.240165053,-0.191196403,9.943595303,-0.240165053,-0.191196403,-0.021563501,0.013413435047112622,5.026146039384806E-4,-136.6038847,24.546765480041504,16.322135639190673,0,0.8041144013404846,1.2471415996551514,11.82800006866455,0.004929318,0,160.09999084472656,-86.9154603,40.3848292,-0.522249778,0.014519100674220081,-0.005257695,0.8526527279789008,0.019274626,0.024133521,1.0988873926181237,1.2157639619686361E-4,2.8021877588595725E-4,4.447916934031595E-5,Home
91,-149.5,-108.9991901,18.663681774139405,-28.40745541,-0.002575374,5.943076413811989E-4,4.725056944541561E-4,9.939004194,-0.238233953,-0.191057014,9.939004194,-0.238233953,-0.191057014,-0.021504195,0.012784796088789274,1.630901745565742E-5,-136.599006,24.603129577636718,16.35214771270752,0,0.5322593450546265,1.1069035530090332,12.003000259399414,0.091478616,0,160.09999084472656,-86.915461,40.3848307,-0.522112209,0.014485588857849825,-0.005216081,0.8527377878577964,0.019264785,0.024024442670125407,1.0985650414402046,1.8088195531728486E-4,-3.48E-04,-4.42E-04,Home
92,-146.4444444,-108.9429479,18.595971717834473,-28.42233946,-6.48E-04,-0.001768732,-0.001850179,9.936017743,-0.244660363,-0.191080693,9.936017743,-0.244660363,-0.191080693,-0.021480473,0.013081323916038263,7.398368234664781E-4,-136.5433734,24.536029567718504,16.33738571166992,0,0.5232590436935425,1.1169230937957764,12.168999671936035,0.094882138,0,160.09999084472656,-86.9154615,40.3848315,-0.522423531,0.014477036151926494,-0.005446444,0.8525456681992244,0.019000650591497283,0.024415519,1.0992962249274392,2.0460418348643676E-4,-5.19E-05,2.8170137191462576E-4,Home
93,-150.875,-109.0675101,18.588163566589355,-28.38476353,-0.010112337,-0.003214724,-9.26E-04,9.915766947477767,-0.246812106,-0.189035893,9.915766947477767,-0.246812106,-0.189035893,-0.021373723,0.013057601647180261,7.7542016458996E-4,-136.668423,24.527977504730224,16.375449600219728,0,0.4338202476501465,1.1268818378448486,12.26200008392334,0.061064024,0,160.09999084472656,-86.9154616,40.3848317,-0.522588645,0.014509983966579137,-0.005507986,0.8524436319915993,0.018987893660381002,0.024558493650509317,1.099683277815291,3.1135418764270336E-4,-7.56E-05,3.172847367732704E-4,Home
94,-151.5555556,-109.0577496,18.57559762954712,-28.49639357,0.002247051,4.644474936920462E-4,4.671450378825364E-4,9.920026982872232,-0.244102756,-0.187665247,9.920026982872232,-0.244102756,-0.187665247,-0.021444889,0.013211796,6.68670170605906E-4,-136.6579315,24.515655479431153,16.263575668334962,0,0.4248529076576233,1.1369808912277222,12.293999671936035,0.034531675,0,160.09999084472656,-86.9154616,40.3848318,-0.52270571,0.014536025599368568,-0.005547333,0.8523711845712755,0.018987831343146203,0.024655409,1.0999577311636175,2.4018751443770613E-4,7.857986922529571E-5,2.1053473374724966E-4,Home
95,-149.125,-109.1141141,18.56778953552246,-28.36878145,0.002335974,-0.001515186,-7.94E-04,9.929827671606564,-0.244085333,-0.188315722,9.929827671606564,-0.244085333,-0.188315722,-0.021539778,0.012891546090685048,8.110035141902859E-4,-136.7138069,24.508091506958007,16.391309642791747,0,0.4248529076576233,1.1369808912277222,12.293999671936035,0.034531675,0,160.09999084472656,-86.9154616,40.3848318,-0.522374195,0.014427842029813424,-0.005491408,0.8525766041672346,0.01887129,0.024439595314194856,1.099181123150205,1.452986198450321E-4,-2.42E-04,3.5286807676650656E-4,Home
96,-82.66666667,-109.0804417,18.60524356842041,-28.38427542,-0.010306303,-0.003181381,-0.001064013,9.910609662,-0.247831378,-0.188036947,9.910609662,-0.247831378,-0.188036947,-0.021285677,0.012933516185372494,5.991001945893423E-4,-136.6803787,24.545423583984373,16.37508369445801,0,0.5008991956710815,1.1558279991149902,12.29699993133545,0.005726547,0,160.09999084472656,-86.9154616,40.3848317,-0.52262668,0.014477978173929911,-0.005585972,0.8524203873597659,0.018850724,0.024658844,1.099773189,3.994001308456063E-4,-2.00E-04,1.4096475206315517E-4,Home
97,-134,-109.0283479,18.63635372161865,-28.40452747,-0.017152444,-0.003647231,-0.001341881,9.874833403281794,-0.251104085,-0.18682892,9.874833403281794,-0.251104085,-0.18682892,-0.021361862,0.012844101607220845,8.110035164507775E-4,-136.6281631,24.57628948,16.355563716888426,0,0.32649654150009155,1.1668425798416138,12.357000350952148,0.005402611,0,160.09999084472656,-86.9154616,40.3848318,-0.522996482,0.014530751040404282,-0.005757686,0.8521915101310582,0.018750421,0.025014972458910018,1.1006409809427353,3.2321529720629594E-4,-2.89E-04,3.5286807676650656E-4,Home
98,-150.2222222,-109.0433535,18.62952163696289,-28.35975348,-0.004243341,-0.00241684,-0.003054823,9.869327684050624,-0.251766176,-0.188315723,9.869327684050624,-0.251766176,-0.188315723,-0.021504195,0.01272549,8.347257389687002E-4,-136.6437781,24.56921350479126,16.399727745056154,0,0.47413078,1.1768981218338013,12.265999794006348,0.003157921,0,160.09999084472656,-86.9154616,40.3848318,-0.523290599,0.014599891931035565,-0.005850441,0.8520091297557053,0.018762600906554936,0.025251917052760864,1.1013308427866222,1.8088195531728486E-4,-4.08E-04,3.7659030041467507E-4,Home
99,-151.375,-108.9786939,18.631473655700685,-28.42160744,0.003410719,-0.002087178,-0.002932835,9.877528227648689,-0.251957833,-0.188640961,9.877528227648689,-0.251957833,-0.188640961,-0.021397445,0.012701768238205933,8.347257384035772E-4,-136.5777768,24.57140945,16.338117752075195,0,0.47413078,1.1768981218338013,12.265999794006348,0.003157921,0,160.09999084472656,-86.9154616,40.3848318,-0.523378822,0.014632617,-0.005858976,0.8519543166299468,0.018806841,0.025302664259249725,1.1015375459078447,2.8763196173404315E-4,-4.31E-04,3.7659030041467507E-4,Home
100,-150.7777778,-109.0366434,18.610611610412597,-28.36841536,0.001812629,-0.001428121,-0.00233093,9.881523956,-0.250552342,-0.187734941,9.881523956,-0.250552342,-0.187734941,-0.021361862,0.012654324,9.177535189116753E-4,-136.6373122,24.550669536590576,16.391797771453856,0,0.6140032410621643,1.1968531608581543,12.031999588012695,0.00484534,0,160.09999084472656,-86.9154617,40.3848319,-0.523246346,0.014590844656657246,-0.005834304,0.8520365733544804,0.018765374005419538,0.025213965730181018,1.1012270022364496,3.2321529720629594E-4,-4.79E-04,4.5961808318326487E-4,Home
101,-151.875,-108.973936,18.62183561325073,-28.44917946,0.00562254,-0.001311857,-0.002890035,9.889973108585064,-0.249831389,-0.188043649,9.889973108585064,-0.249831389,-0.188043649,-0.021421167,0.012761073810889305,7.991424034964474E-4,-136.573141,24.562381477355956,16.310911598205568,0,0.6313477754592896,1.0560963153839111,11.843999862670898,0.026176184,0,160.09999084472656,-86.915462,40.3848322,-0.52312661,0.014554011020628572,-0.005810519,0.8521108893514837,0.018730994,0.025132239208493418,1.100946324542888,2.639097392161205E-4,-3.72E-04,3.4100696494242233E-4,Home
102,-148.7777778,-109.0012642,18.659289646148682,-28.36512146,0.020585337888847276,3.267502032437371E-4,-0.001736007,9.93177051,-0.244854869,-0.18773494,9.93177051,-0.244854869,-0.18773494,-0.021433028,0.012903407161820282,6.92392398209935E-4,-136.6020551,24.59934753417969,16.39448163986206,0,0.3041381239891052,1.0661174058914185,11.70199966430664,0.039079137,0,160.09999084472656,-86.9154624,40.3848326,-0.522710571,0.014471824606428447,-0.00565416,0.8523685746979945,0.018766504558689386,0.024770555,1.0999703858662577,2.520486262617904E-4,-2.30E-04,2.3425695852566402E-4,Home
103,-150.75,-108.9834518,18.64855369567871,-28.37768747,0.009763625,-1.55E-05,-5.90E-04,9.947257180815761,-0.243315797,-0.187758171,9.947257180815761,-0.243315797,-0.187758171,-0.021539778,0.013247379508701343,6.330868419151283E-4,-136.5837553,24.58885549545288,16.38264778137207,0,0.20615528523921967,1.0761597156524658,11.553999900817871,0.030622677877545357,0,160.09999084472656,-86.9154626,40.3848327,-0.522395416,0.014418807034425943,-0.005520722,0.8525635733187777,0.018824649739612655,0.024480614,1.0992311239242554,1.452986198450321E-4,1.1416320582779431E-4,1.7495139940524275E-4,Home
104,-151.2222222,-109.0512839,18.566813583374024,-28.38403152,-0.00939497,-0.002518879,-0.001083025,9.930742513786242,-0.245508249,-0.187920791,9.930742513786242,-0.245508249,-0.187920791,-0.021456751,0.012938991,7.51697959025725E-4,-136.651221,24.506993560791017,16.376181564331056,0,0.37443289160728455,1.0861455202102661,11.402999877929688,0.015935134142637253,0,160.09999084472656,-86.9154626,40.3848327,-0.522328303,0.014398580507456678,-0.005506713,0.8526051171775003,0.018806699,0.024434107003136744,1.099073896130312,2.2832640261362188E-4,-1.94E-04,2.9356251764608526E-4,Home
105,-151.8888889,-108.9722281,18.603779640197754,-28.48980539,0.001331999,-3.57E-04,-8.24E-05,9.927222909,-0.244480266,-0.188176335,9.927222909,-0.244480266,-0.188176335,-0.021626342,0.013368157553486526,5.873531313577237E-4,-136.5707007,24.543959522247313,16.270529594421387,0,0.40816664695739746,1.096157193183899,11.303000450134277,0.012412462383508682,0,160.09999084472656,-86.9154627,40.3848328,-0.522622082,0.014505433258958735,-0.005538533,0.852423061,0.018947279564319894,0.024606549879536033,1.0997618585824966,5.873531335964799E-5,2.3494125903548242E-4,1.2921768939122558E-4,Home
106,-152.625,-109.0105357,18.619517555236815,-28.35401947,-0.004174918,-0.001945285,0.001287101,9.927234520032568,-0.245066856,-0.187130928,9.927234520032568,-0.245066856,-0.187130928,-0.021587223,0.013247379481575443,7.398368466365178E-4,-136.6094966,24.55908748626709,16.405339736938476,0,0.27784886956214905,1.1061209440231323,11.274999618530273,0.005079916,0,160.09999084472656,-86.9154626,40.3848328,-0.522487743,0.014482525837363548,-0.005482122,0.8525061624721416,0.018971022055710402,0.024483416,1.0994467712143092,9.78541725486951E-5,1.1416320752316308E-4,2.8170140582200104E-4,Home
107,-151.5555556,-108.9836958,18.584137516021727,-28.31192944,-0.015875465,-0.002530784,-3.73E-04,9.890956036,-0.248534123,-0.18754909,9.890956036,-0.248534123,-0.18754909,-0.021599084,0.013211796141582207,5.975035075731214E-4,-136.5839996,24.524439601898194,16.44755168914795,0,0.42059481143951416,1.116080641746521,11.281999588012695,0.002937461,0,160.09999084472656,-86.9154626,40.3848327,-0.522861728,0.014542762,-0.005644825,0.8522747263167668,0.018892861088936768,0.024832156,1.1003241145495073,8.599306072461085E-5,7.857987035554155E-5,1.3936806393299E-4,Home
108,-150.125,-109.0185879,18.587797584533693,-28.37549145,-0.00486298,-0.001163604,5.373908478079491E-4,9.885148085436775,-0.250119659,-0.187316778,9.885148085436775,-0.250119659,-0.187316778,-0.021741417,0.013389712877716254,4.077257178226504E-4,-136.6176709,24.527001552581787,16.383867740631104,0,0.5859180688858032,1.1260936260223389,11.258000373840332,0.00311836,0,160.09999084472656,-86.9154626,40.3848327,-0.523333761,0.014677652329640481,-0.005755284,0.8519819170525931,0.018993464994777755,0.025172081640333806,1.101430726282805,-5.63E-05,2.5649654715168246E-4,-5.04E-05,Home
109,-149,-109.02298,18.612929649353028,-28.39793947,0.001950699,1.1648700653927998E-4,0.001896738,9.889628025,-0.24982564,-0.186548134,9.889628025,-0.24982564,-0.186548134,-0.021765139,0.013413435092322457,4.5517016568411033E-4,-136.6229166,24.553109493255615,16.362395629882812,0,0.5859180688858032,1.1260936260223389,11.258000373840332,0.00311836,0,160.09999084472656,-86.9154626,40.3848327,-0.523504979,0.014736218197108472,-0.005779868,0.8518755603762507,0.019062513051536476,0.025279116265258743,1.1018320090562395,-8.01E-05,2.802187719300968E-4,-2.97E-06,Home
110,-153.5,-108.9817438,18.640257797241212,-28.35279947,0.002372723,2.5812312237267354E-4,0.001947182,9.894626691503433,-0.249869923,-0.186364294,9.894626691503433,-0.249869923,-0.186364294,-0.02188375,0.013615074024978772,5.026146124153245E-4,-136.5816811,24.58068140029907,16.40729179382324,0,0.4517742693424225,1.1460884809494019,11.354000091552734,0.004375006,0,160.09999084472656,-86.9154626,40.3848326,-0.52349913,0.014726228469494477,-0.00579187,0.8518792460265668,0.019033089099289142,0.025288979586177658,1.1018184666494721,-1.99E-04,4.8185767576514374E-4,4.447916934031595E-5,Home
111,-153.8888889,-108.9754002,18.596947574615477,-28.40721146,0.002420814,4.586418276851617E-5,0.001255277,9.898436657,-0.248545741,-0.18645722,9.898436657,-0.248545741,-0.18645722,-0.021800723,0.013401573985019356,5.263368366286159E-4,-136.575092,24.536639404296874,16.352391662597658,0,0.5099019408226013,1.1561639308929443,11.550999641418457,0.001940096,0,160.09999084472656,-86.9154626,40.3848326,-0.523264596,0.014653942,-0.005745441,0.8520248896867326,0.018965397247122328,0.025128941,1.1012686155374767,-1.16E-04,2.6835766067113547E-4,6.820139298848447E-5,Home
112,-153.125,-108.9823539,18.654165744781494,-28.39952545,0.019635793074820804,0.002175522,0.001403126,9.934654133991131,-0.244294415,-0.186875383,9.934654133991131,-0.244294415,-0.186875383,-0.021777001,0.013377851743287253,5.737812839249529E-4,-136.5827788,24.594345569610596,16.360077743530272,0,0.4651881456375122,1.1661392450332642,11.58899974822998,0.006424027,0,160.09999084472656,-86.9154627,40.3848325,-0.522946597,0.014590144,-0.005627432,0.8522219258604697,0.018989339796374145,0.024853949,1.1005226524130811,-9.19E-05,2.4463543645784403E-4,1.1564584028482148E-4,Home
113,-149,-109.0063879,18.647943687438964,-28.42587746,0.010300957239591159,-9.93E-05,-1.79E-04,9.955245888348921,-0.242851172,-0.188478341,9.955245888348921,-0.242851172,-0.188478341,-0.021720318,0.013285928101350482,6.578355073893013E-4,-136.6060805,24.588245544433594,16.33409168243408,0,0.4472135901451111,1.1761925220489502,11.58899974822998,0.004674523,0,160.09999084472656,-86.9154627,40.3848325,-0.522386317,0.014448352525225626,-0.005466748,0.8525689932016226,0.018931698645106874,0.024419228850792233,1.0992092043161392,-3.52E-05,1.5271181921259715E-4,1.9970006542280316E-4,Home
114,-152.625,-108.9807677,18.620737571716308,-28.4666255,5.547792008779582E-4,-2.55E-04,0.001532226,9.953401861838923,-0.242035172,-0.186852151,9.953401861838923,-0.242035172,-0.186852151,-0.021492334,0.013413435065196556,5.381979484527001E-4,-136.5813152,24.56103958129883,16.293465633392334,0,0.4472135901451111,1.1862019300460815,11.564000129699707,0.002356548,0,160.09999084472656,-86.9154627,40.3848325,-0.522236501,0.014413667,-0.005418566,0.8526616669395595,0.018927132114044672,0.024297485,1.0988580451428311,1.9274306714136912E-4,2.802187747557114E-4,8.006250481256872E-5,Home
115,-151.3333333,-108.9927235,18.63928155899048,-28.46186745,-0.007751382,-0.001193906,3.778170613409246E-4,9.936489392,-0.244195682,-0.188478342,9.936489392,-0.244195682,-0.188478342,-0.021575362,0.013271102,4.6703127750819456E-4,-136.5925394,24.579217529296876,16.297857723236085,0,0.5056678652763367,1.1962096691131592,11.592000007629395,0.00575879,0,160.09999084472656,-86.9154628,40.3848326,-0.522448389,0.014479578762016828,-0.005459535,0.8525304545476599,0.018990708370376558,0.02444095,1.0993544141065728,1.0971528437277936E-4,1.3788543060620867E-4,8.89583386806319E-6,Home
116,-150.75,-108.998458,18.616467628479004,-28.35157951,0.001503111,-3.25E-04,9.17058257223333E-4,9.941481312501777,-0.243112523,-0.187944022,9.941481312501777,-0.243112523,-0.187944022,-0.021599084,0.013425296208667524,7.635590702846863E-4,-136.5980289,24.55628147125244,16.40814567565918,0,0.528015137,1.1059067249298096,11.430000305175781,0.054073870182037354,0,160.09999084472656,-86.9154634,40.3848333,-0.522439197,0.014480081323570418,-0.005452328,0.852536142,0.018999370212838488,0.024428968,1.0993328094482422,8.599306072461085E-5,2.920798848844269E-4,3.0542362947016954E-4,Home
117,-151,-109.0056557,18.608415565490724,-28.38659348,8.313262346878792E-4,-0.001366302,0.001225213,9.943032402258654,-0.242880126,-0.18781357,9.943032402258654,-0.242880126,-0.18781357,-0.021622806,0.013508324,5.975035064428756E-4,-136.6063251,24.54822961807251,16.373375663757326,0,0.44283178448677063,1.1158339977264404,11.406999588012695,0.081800878,0,160.09999084472656,-86.9154639,40.3848342,-0.522301288,0.014455201438836102,-0.005396601,0.852621412,0.019019085,0.024304851907694224,1.0990094316815866,6.227083707644234E-5,3.751076704786313E-4,1.3936806393299E-4,Home
118,-149.7777778,-108.9708858,18.637207756042482,-28.45052151,-0.001204435,-0.001538183,0.00161038,9.940470705,-0.245258512,-0.188478341,9.940470705,-0.245258512,-0.188478341,-0.021670251,0.013508324,6.093646177018369E-4,-136.5713109,24.577753562927246,16.309203662872314,0,0.28178006410598755,1.1257672309875488,11.45199966430664,0.058409501,0,160.09999084472656,-86.9154642,40.3848345,-0.522597333,0.014548557,-0.00545183,0.8524380580892841,0.019112160718701417,0.024503222,1.0997029357743495,1.482639091035116E-5,3.751076704786313E-4,1.5122917575707424E-4,Home
119,-152.75,-109.0124881,18.611587677001953,-28.41196949,-0.003537484,-6.33E-04,9.477639082566048E-4,9.931938865809764,-0.245728947,-0.189918682,9.931938865809764,-0.245728947,-0.189918682,-0.021693973,0.013638796212459073,5.61920169275254E-4,-136.6121809,24.551157474517822,16.34787773132324,0,0.41593268513679504,1.135783076286316,11.484000205993652,0.031001796945929527,0,160.09999084472656,-86.9154643,40.3848345,-0.52284911,0.014631402181479538,-0.005493284,0.8522819622049054,0.019202858,0.02466619,1.1002927972275076,-8.90E-06,2.120173540762038E-4,-4.30E-05,Home
120,-151.6666667,-108.964054,18.667951641082762,-28.43209944,0.001625941,0.001204191,7.822483199314006E-4,9.937485463410905,-0.242784381,-0.189663138,9.937485463410905,-0.242784381,-0.189663138,-0.021682112,0.013496462843444162,6.330868407848824E-4,-136.5646005,24.608253517150878,16.32762572288513,0,0.41593268513679504,1.1458241939544678,11.550999641418457,0.015457638,0,160.09999084472656,-86.9154643,40.3848345,-0.522716295,0.014595321632777025,-0.005459133,0.8523642588587641,0.019180858,0.024567241988425116,1.099981494320249,2.9652779560210635E-6,5.7822895277002194E-5,2.2239572802576626E-5,Home
121,-150.375,-109.0357901,18.612685565948485,-28.3362075,-0.008027022,-9.38E-04,0.001646031,9.925654809451798,-0.245084279,-0.188176335,9.925654809451798,-0.245084279,-0.188176335,-0.021732065,0.013485628144385723,5.52111943901624E-4,-136.6365807,24.55249958,16.424249668121337,0,0.41593268513679504,1.1458241939544678,11.550999641418457,0.015457638,0,160.09999084472656,-86.9154643,40.3848345,-0.522688381,0.014565669,-0.005487511,0.8523817085302793,0.019101430321685396,0.024583993855720528,1.0999164695923145,-4.70E-05,4.6988223822644126E-5,-5.87E-05,Home
122,-151.8888889,-109.0261517,18.634157600402833,-28.40355139,-0.017726639,-0.00237221,-1.35E-04,9.887401590069521,-0.249565014,-0.189059124,9.887401590069521,-0.249565014,-0.189059124,-0.021658389,0.013389712850590355,7.042535122945109E-4,-136.6262106,24.573971576690674,16.356417770385743,0,0.6171709895133972,1.164728045463562,11.678000450134277,0.002461329,0,160.09999084472656,-86.9154643,40.3848344,-0.52312264,0.01465393,-0.005646948,0.8521126960087748,0.019072586797105457,0.024957870485857854,1.1009350228078156,2.668750160418957E-5,-4.89E-05,9.340624826806552E-5,Home
123,-142.875,-109.0284698,18.626471729278563,-28.33962351,-0.005565708,-7.58E-04,-3.36E-06,9.880501793426218,-0.251493209,-0.189035893,9.880501793426218,-0.251493209,-0.189035893,-0.021741417,0.013401574,4.1958682964673467E-4,-136.6280414,24.567261543273926,16.420101795196533,0,0.6171709895133972,1.1757595539093018,11.748000144958496,0.004085995,0,160.09999084472656,-86.9154644,40.3848344,-0.523636931,0.014782719947036031,-0.005796629,0.8517935183441755,0.019120282068559268,0.025359338547274905,1.1021412992940365,-5.63E-05,-3.71E-05,-1.91E-04,Home
124,-150.8888889,-109.0051681,18.615369548797606,-28.45759745,0.001064467,0.001569998,8.263375284602341E-4,9.883521931842694,-0.249129427,-0.187525859,9.883521931842694,-0.249129427,-0.187525859,-0.021682112,0.013437157315970625,4.907535011563631E-4,-136.6058372,24.554939556121827,16.302615604400636,0,0.5948109030723572,1.1857459545135498,11.770000457763672,0.002673906,0,160.09999084472656,-86.9154644,40.3848344,-0.523611131,0.014758678379206403,-0.00581738,0.8518096735176531,0.019058363005808255,0.025368941821230267,1.1020811182781332,2.9652779560210635E-6,-1.48E-06,-1.20E-04,Home
125,-150.4444444,-109.0226138,18.617443447113036,-28.40464945,0.003783004,9.687535681770843E-4,7.278884498818407E-5,9.890778449865488,-0.249328092,-0.188089664,9.890778449865488,-0.249328092,-0.188089664,-0.021824445,0.013543907308824432,4.0772571895289624E-4,-136.6235272,24.557379531860352,16.35544162750244,0,0.10000000149011612,1.195751428604126,11.708999633789062,0.001248989,0,160.09999084472656,-86.9154644,40.3848344,-0.523533233,0.014733555627245348,-0.005803742,0.8518580834842423,0.019032141030992118,0.025317645767360057,1.1018984792301956,-1.39E-04,1.0526734652919966E-4,-2.03E-04,Home
126,-148.75,-109.02298,18.584503498077392,-28.41318949,0.003792263,6.929568005997E-4,8.720919055846131E-4,9.896810374213654,-0.24950403,-0.187618784,9.896810374213654,-0.24950403,-0.187618784,-0.021765139,0.013508324,5.381979467573313E-4,-136.6227943,24.524561557769776,16.34677972793579,0,0.092195444,1.2059097290039062,11.569000244140625,0.004301937,0,160.09999084472656,-86.9154645,40.3848344,-0.523506518,0.014730110972468714,-0.00579076,0.8518746420017724,0.019040651872609424,0.025291324276657937,1.101835747,-8.01E-05,6.968400992670105E-5,-7.26E-05,Home
127,-150.7777778,-109.0161481,18.628911685943603,-28.40586943,0.019616618,0.003386937,0.00108245,9.933727755129915,-0.244343781,-0.187456165,9.933727755129915,-0.244343781,-0.187456165,-0.021907473,0.013686240668797377,4.90753501721486E-4,-136.6154749,24.568603477478028,16.354343719482422,0,0.3052867650985718,1.2157868146896362,11.418000221252441,0.003404324,0,160.09999084472656,-86.9154645,40.3848344,-0.523140734,0.014647877648545122,-0.005669244,0.8521015140616778,0.019038376877608808,0.024989957,1.1009776951039878,-2.22E-04,2.476006912438253E-4,-1.20E-04,Home
128,-149.5,-108.9696655,18.62464162826538,-28.41465355,0.009615889,0.001213536,0.00118335,9.951180430291926,-0.242944097,-0.187827866,9.951180430291926,-0.242944097,-0.187827866,-0.021777001,0.013626935068988105,5.263368366286159E-4,-136.5698474,24.564943389892576,16.344583625793458,0,0.398246169,1.2258621454238892,11.312999725341797,0.005355557,0,160.09999084472656,-86.9154646,40.3848344,-0.522619056,0.014520283652813111,-0.005512499,0.8524248270155157,0.018999904882415986,0.024577613576378637,1.0997544677512159,-9.19E-05,1.8829512703729775E-4,-8.45E-05,Home
129,-151,-109.0089498,18.616223602294923,-28.3414535,-0.00383522,4.942821195492378E-4,0.001152256,9.943769492,-0.242854075,-0.187711709,9.943769492,-0.242854075,-0.187711709,-0.021696824,0.013591352,4.93376631101665E-4,-136.6093756,24.557013511657715,16.41802770614624,0,0.4651881456375122,1.235849142074585,11.244999885559082,0.005849024,0,160.09999084472656,-86.9154646,40.3848345,-0.522468858,0.014482755563221872,-0.005468636,0.8525178134441376,0.018986045114266183,0.024460243294015527,1.0994024139184218,-1.17E-05,1.5271179290721193E-4,-1.17E-04,Home
130,-149.625,-108.9858919,18.63623165130615,-28.4035515,-0.001793806,9.031955478260819E-5,0.001161389,9.935234810542134,-0.244250856,-0.188338953,9.935234810542134,-0.244250856,-0.188338953,-0.021836306,0.013615073988810905,5.263368366286159E-4,-136.5865611,24.57616756439209,16.356417655944824,0,0.5147815346717834,1.2458194494247437,11.343999862670898,0.006347637,0,160.09999084472656,-86.9154647,40.3848345,-0.522679022,0.014554095011457656,-0.005499665,0.8523875712191017,0.019069259624602725,0.024592411604899805,1.099894693,-1.51E-04,1.7643401916907396E-4,-8.45E-05,Home
131,-145.6666667,-108.971618,18.646601676940918,-28.36719549,0.002152804,0.001301503,8.555011263171446E-4,9.942680627396964,-0.243039926,-0.188664192,9.942680627396964,-0.243039926,-0.188664192,-0.021682112,0.013603212881507804,5.026146129804473E-4,-136.5713107,24.58678153991699,16.392895641326906,0,0.6000833511352539,1.1052461862564087,11.307999610900879,0.062320366501808167,0,160.09999084472656,-86.9154654,40.3848354,-0.522666225,0.014549875713306145,-0.005497574,0.8523954986368568,0.019064616213001095,0.024584148965269618,1.0998647085671287,2.9652779560210635E-6,1.6457290677986678E-4,-1.08E-04,Home
132,-150.3333333,-108.9884537,18.629033737182617,-28.41233549,-5.90E-04,-6.35E-04,0.001305833,9.940700133,-0.244599325,-0.188850043,9.940700133,-0.244599325,-0.188850043,-0.021587223,0.013638796230543006,5.61920169275254E-4,-136.5882681,24.56835964202881,16.34775566101074,0,0.5232590436935425,1.1151806116104126,11.449999809265137,0.089887626,0,160.09999084472656,-86.915466,40.3848363,-0.522655687,0.014565955,-0.005464342,0.8524019006386544,0.019127080325507424,0.024544053900878406,1.099839669986836,9.78541725486951E-5,2.0015624507773415E-4,-4.89E-05,Home
133,-151.125,-108.9570998,18.607195568084716,-28.43356358,-7.82E-04,-1.77E-04,0.001445158,9.939314944072834,-0.24492166,-0.188966198,9.939314944072834,-0.24492166,-0.188966198,-0.02167025,0.013591351719952903,6.212257295259211E-4,-136.5574025,24.546887493133546,16.32701576,0,0.47413078,1.125210165977478,11.581000328063965,0.068975456,0,160.09999084472656,-86.9154663,40.3848367,-0.522771192,0.014599934428279261,-0.005489842,0.8523303276126825,0.01915505,0.024625658916616902,1.1001103445164209,1.4826389780105317E-5,1.5271178986967624E-4,1.0378461543615292E-5,Home
134,-148.8888889,-108.9744238,18.60243751525879,-28.40818745,-0.004221583,-3.48E-04,4.46037760058653E-4,9.930774688720703,-0.246058094,-0.189194044,9.930774688720703,-0.246058094,-0.189194044,-0.021693973,0.013496463,5.381979478875772E-4,-136.5741161,24.542251529693605,16.35129369735718,0,0.4118252098560333,1.1352565288543701,11.645999908447266,0.04161239,0,160.09999084472656,-86.9154665,40.3848368,-0.522863335,0.014600603651363873,-0.00555277,0.8522733768213142,0.019087726286458738,0.024735721,1.1003267822913754,-8.90E-06,5.7822902058477254E-5,-7.26E-05,Home
135,-148.25,-108.9449,18.67002561569214,-28.37512554,8.896485115717916E-4,0.0013378,3.74367225517347E-4,9.933222418849908,-0.244035966,-0.189639905,9.933222418849908,-0.244035966,-0.189639905,-0.021658389,0.013413435119448357,5.500590591465386E-4,-136.5452034,24.610449542999266,16.38459966659546,0,0.6041523218154907,1.1451683044433594,11.699999809265137,0.019103214144706726,0,160.09999084472656,-86.9154665,40.3848368,-0.522862484,0.014612129039483742,-0.005533614,0.8522738253028648,0.019127433613232037,0.024715094,1.1003245647671154,2.668750160418957E-5,-2.52E-05,-6.08E-05,Home
136,-147.8888889,-108.9114724,18.60207149505615,-28.40599155,-0.005073334,-4.31E-04,2.753769309775343E-4,9.927237455127308,-0.24501168,-0.189221743,9.927237455127308,-0.24501168,-0.189221743,-0.021610945,0.013437157288844724,5.737812833598299E-4,-136.510434,24.542739543914795,16.354099655151366,0,0.595399022,1.1552114486694336,11.699000358581543,0.012583404779434204,0,160.09999084472656,-86.9154665,40.3848368,-0.52273371,0.014570203862939645,-0.005511699,0.852353681,0.019082574,0.024630997112943132,1.1000228518421211,7.41319489005266E-5,-1.48E-06,-3.71E-05,Home
137,-149.875,-109.0223699,18.636963768005373,-28.37414944,-0.018860567,-0.00142758,-4.08E-05,9.887122774587095,-0.249405297,-0.189175281,9.887122774587095,-0.249405297,-0.189175281,-0.021658389,0.013294824,6.093646182669598E-4,-136.6224286,24.577265434265136,16.386063747406006,0,0.581807554,1.1651638746261597,11.736000061035156,0.008709564,0,160.09999084472656,-86.9154666,40.3848368,-0.523206463,0.014674129018795144,-0.005672628,0.85206071,0.019077701,0.025024666206784618,1.101131617444233,2.6687502734435415E-5,-1.44E-04,-1.48E-06,Home
138,-141.5555556,-109.0254199,18.64440553665161,-28.45710947,-0.00481965,-0.001022724,7.129560869473677E-5,9.880083612,-0.250717865,-0.188733886,9.880083612,-0.250717865,-0.188733886,-0.021708571,0.01343864,5.991001934699642E-4,-136.6254796,24.58360950469971,16.303225708007812,0,0.4472135901451111,1.175158143043518,11.765999794006348,0.004559523,0,160.09999084472656,-86.9154666,40.3848368,-0.523502491,0.014749976779477527,-0.005756022,0.8518770090662516,0.019110997637303975,0.02525283,1.1018258929252625,-2.35E-05,-2.29E-11,-1.17E-05,Home
139,-145,-108.984916,18.648797721862792,-28.41794748,0.001910673,-3.02E-04,1.017354356432424E-4,9.886216756209587,-0.25119701,-0.188757116,9.886216756209587,-0.25119701,-0.188757116,-0.021788862,0.013342268,5.500590597116615E-4,-136.585829,24.588245525360108,16.34177764892578,0,0.4472135901451111,1.175158143043518,11.765999794006348,0.004559523,0,160.09999084472656,-86.9154666,40.3848368,-0.523655463,0.014782664483612023,-0.005809571,0.851782059,0.019106103794522655,0.025381748,1.102184854664849,-1.04E-04,-9.64E-05,-6.08E-05,Home
140,-140,-109.0095597,18.68905771255493,-28.42563343,0.002103102,0.001495846,8.996826352424992E-4,9.890282269820426,-0.248772246,-0.186991539,9.890282269820426,-0.248772246,-0.186991539,-0.021860028,0.013591351774204704,4.1958683021185754E-4,-136.6097414,24.63009141921997,16.33470169067383,0,0.14764823019504547,1.1941379308700562,11.76200008392334,6.904712645336986E-4,0,160.09999084472656,-86.9154666,40.3848368,-0.523506879,0.014718395901970494,-0.005809837,0.8518744967516186,0.019000697483136816,0.025311569294449197,1.101836846870126,-1.75E-04,1.5271179608602835E-4,-1.91E-04,Home
141,-143.1111111,-108.9766198,18.634889583587647,-28.41843548,0.002164304,0.001260607,4.5901001657097087E-4,9.894045885326793,-0.248728686,-0.18754909,9.894045885326793,-0.248728686,-0.18754909,-0.021848167,0.013496462870570063,5.263368360634929E-4,-136.5766788,24.57409351348877,16.341899662017823,0,0.14764823019504547,1.2041380405426025,11.826000213623047,0.003745354,0,160.09999084472656,-86.9154667,40.3848368,-0.523460996,0.014709556755582684,-0.005792228,0.8519029634670147,0.019005428095465723,0.025271281690418142,1.1017291511146767,-1.63E-04,5.782290092823141E-5,-8.45E-05,Home
142,-147.75,-108.9861356,18.649773712158204,-28.4433235,0.014871115823393887,0.00218449,9.124135797463574E-4,9.919975437,-0.245396616,-0.187077316,9.919975437,-0.245396616,-0.187077316,-0.021788862,0.013496462834402196,5.500590597116615E-4,-136.5866832,24.589953536987306,16.31640167236328,0,0.27730849385261536,1.2152718305587769,11.81000042,0.003187532,0,160.09999084472656,-86.9154667,40.3848368,-0.523107838,0.014623767388894142,-0.005685224,0.8521220284758262,0.018981528875318544,0.024991236663269766,1.1009008548792125,-1.04E-04,5.7822894711879274E-5,-6.08E-05,Home
143,-151.2222222,-109.07178,18.639891586303712,-28.42953749,0.010474769814500531,0.001159368,2.0367717279971224E-4,9.939776670585559,-0.244207298,-0.187618784,9.939776670585559,-0.244207298,-0.187618784,-0.021800723,0.013555768,4.907535005912401E-4,-136.6724487,24.579461669921876,16.33043161392212,0,0.38483762741088867,1.2251609563827515,11.76099967956543,0.001765624,0,160.09999084472656,-86.9154667,40.3848368,-0.522730451,0.014518731870480533,-0.005592372,0.8523560334177851,0.018910549436379404,0.024714668254250463,1.1000161691776758,-1.16E-04,1.1712845609279223E-4,-1.20E-04,Home
144,-122.5,-109.0128535,18.60048563,-28.51078955,0.003185115,0.001957766,0.002003098,9.943731761673122,-0.24289473,-0.187247083,9.943731761673122,-0.24289473,-0.187247083,-0.021717695,0.013804851714702486,5.026146067640952E-4,-136.6124249,24.540543613433837,16.24869161605835,0,0.21023796498775482,1.235250473022461,11.751999855041504,7.373748230747879E-4,0,160.09999084472656,-86.9154667,40.3848368,-0.522699622,0.014538442046896926,-0.005539196,0.8523749367704669,0.019000635256321684,0.024643916473949996,1.0999433890129755,-3.26E-05,3.66211801572947E-4,-1.08E-04,Home
145,-143.7777778,-109.0261521,18.578769588470458,-28.44637346,-0.004935552,4.505053596589172E-4,-0.001611735,9.933245649615538,-0.243652649,-0.193217524,9.933245649615538,-0.243652649,-0.193217524,-0.021468612,0.013567629460136867,6.212257221793232E-4,-136.6249913,24.518949508666992,16.313229751586913,0,0.4609772264957428,1.2451897859573364,11.776000022888184,2.3584222071804106E-4,0,160.09999084472656,-86.9154667,40.3848368,-0.522748041,0.014646231341492203,-0.005399201,0.8523442727848164,0.019329413066355928,0.024519024,1.1000551656611914,2.1646529191978348E-4,1.2898955717954098E-4,1.0378446850419334E-5,Home
146,-129.625,-109.0334715,18.477143669128417,-28.2095715,0.002821235,-1.06E-04,0.00206243,9.939982766086615,-0.241355656,-0.191591334,9.939982766086615,-0.241355656,-0.191591334,-0.021661583,0.013591351703955578,5.756060591710804E-4,-136.6330432,24.417079696655275,16.550153732299805,0,0.3354102075099945,1.1045416593551636,11.58899974822998,0.037904527,0,160.09999084472656,-86.9154671,40.3848374,-0.522590752,0.014652972449906744,-0.005278967,0.8524413641828757,0.01947108,0.024317442,1.0996856597753673,2.349412870199348E-5,1.527117878700105E-4,-3.52E-05,Home
147,-125.6666667,-108.9085441,18.529237747192383,-28.2331175,-0.012134783,-0.002394094,0.001363362,9.918217927506827,-0.246501386,-0.19187011,9.918217927506827,-0.246501386,-0.19187011,-0.021836306,0.013840435045653755,5.144757191533024E-4,-136.5092137,24.467953567504882,16.52636377334595,0,0.4070626497268677,1.1145665645599365,11.567999839782715,0.054384104907512665,0,160.09999084472656,-86.9154675,40.3848379,-0.522898121,0.014717651,-0.005388438,0.8522510007747168,0.019458087052679755,0.024578767313251218,1.1004064360868584,-1.51E-04,4.0179513252421636E-4,-9.64E-05,Home
148,-142.375,-108.968934,18.562665634155273,-28.25934748,-0.002912697,0.001546027,1.4925379197574357E-4,9.912712115685917,-0.243661362,-0.195215415,9.912712115685917,-0.243661362,-0.195215415,-0.021421168,0.013401573849389854,8.11003498366844E-4,-136.5687485,24.502479438781737,16.500621719360353,0,0.3577708899974823,1.124511957168579,11.571999549865723,0.046219054609537125,0,160.09999084472656,-86.9154677,40.3848382,-0.523217809,0.014860903817111427,-0.005380004,0.852052377,0.019701963344823967,0.024721601,1.101154855154093,2.639097471278414E-4,-3.71E-05,2.0015622981941526E-4,Home
149,-125.1111111,-108.9745461,18.515451507568358,-28.31717545,-5.14E-04,2.393663218877848E-4,1.283480415066469E-4,9.914744858602875,-0.242717591,-0.192683204,9.914744858602875,-0.242717591,-0.192683204,-0.021539778,0.013342268,5.263368253261574E-4,-136.5753366,24.45587553024292,16.442671813964843,0,0.3577708899974823,1.124511957168579,11.571999549865723,0.046219054609537125,0,160.09999084472656,-86.9154677,40.3848382,-0.522794731,0.014690775713584955,-0.00535987,0.8523151249561495,0.019445154852080114,0.024499579323726952,1.1001640211031274,1.4529862097527796E-4,-9.64E-05,-8.45E-05,Home
150,-139.2222222,-108.9721059,18.525333595275878,-28.22713957,0.001336746,6.547544187712438E-4,-7.96E-04,9.910246014595032,-0.243279888,-0.194393832,9.910246014595032,-0.243279888,-0.194393832,-0.021682112,0.013626935014736306,3.2469792770746265E-4,-136.5724089,24.46514757156372,16.53319568634033,0,0.3757658898830414,1.144528865814209,11.809000015258789,0.016054261475801468,0,160.09999084472656,-86.9154678,40.3848384,-0.522994967,0.014754647144921196,-0.005396173,0.8521909326025583,0.019510340469988806,0.024632856521068267,1.1006332161357102,2.9652790862669064E-6,1.882951202558227E-4,-2.86E-04,Home
151,-106.875,-108.9566122,18.526553630828857,-28.2282375,0.005904337,0.002527617,0.001871366,9.929650602988826,-0.239378093,-0.192450892,9.929650602988826,-0.239378093,-0.192450892,-0.021397445,0.013626935023778272,7.161146082951534E-4,-136.5559392,24.466733570098878,16.531487731933595,0,0.38483762741088867,1.1545355319976807,12.003999710083008,0.006802872,0,160.09999084472656,-86.9154678,40.3848383,-0.522751847,0.014739731661252026,-0.005251181,0.8523412387347916,0.019643479,0.024364451380464638,1.1000624941390695,2.876319685155182E-4,1.8829511856045393E-4,1.0526733127088078E-4,Home
152,-106.8888889,-108.9111057,18.468237533569337,-28.17406956,-0.015110192,3.526193424335961E-4,0.004446844,9.894789214273102,-0.241358561,-0.189918682,9.894789214273102,-0.241358561,-0.189918682,-0.021563501,0.013591351710910936,5.500590404974821E-4,-136.5105548,24.40829563140869,16.585533714294435,0,0.4976946711540222,1.1646331548690796,12.529000282287598,0.002213817,0,160.09999084472656,-86.9154678,40.3848383,-0.522779737,0.014738788,-0.005272123,0.8523239724844405,0.019619144336546507,0.024399854278969534,1.100128047674605,1.215764041085845E-4,1.527117836533241E-4,-6.08E-05,Home
153,-109.5,-108.9212322,18.302683639526368,-27.94702738,-0.007034783,-0.001825053,-0.001679052,9.883219968925403,-0.245711523,-0.195540654,9.883219968925403,-0.245711523,-0.195540654,-0.021954918,0.013081323879870396,-7.41E-06,-136.5221445,24.243473625183107,16.81208770751953,0,0.37121421098709106,1.1745306253433228,12.694000244140625,0.003896323,0,160.09999084472656,-86.9154679,40.3848383,-0.52297722,0.014772208389437314,-0.005355612,0.8522016290322091,0.019583099,0.024581738,1.1005913806193084,-2.70E-04,-3.57E-04,-6.18E-04,Home
154,-109.1111111,-108.9500237,17.927411613464354,-27.5807836,0.001398444,0.001410482,0.00186249,9.888237990221931,-0.246097743,-0.189291437,9.888237990221931,-0.246097743,-0.189291437,-0.022084477,0.013755810545542492,5.403648700359134E-4,-136.549595,23.866249675750733,17.179307498931884,0,0.4294182062149048,1.1845266819000244,12.71500015258789,0.00272752,0,160.09999084472656,-86.9154679,40.3848383,-0.523399332,0.014786495119691469,-0.005625747,0.8519404318470222,0.019312488488279857,0.025066772243008018,1.1015829294919968,-3.99E-04,3.171706507251096E-4,-7.05E-05,Home
155,-132.875,-108.8946359,17.917163562774657,-27.60811153,0.003444005,6.733018796420792E-4,-0.001842769,9.894998245,-0.246001915,-0.195842659,9.894998245,-0.246001915,-0.195842659,-0.021717695,0.013579490603607835,5.263368078073468E-4,-136.4934744,23.85734369277954,17.151735649108886,0,0.7111961841583252,1.1945334672927856,12.60200023651123,0.004871721,0,160.09999084472656,-86.915468,40.3848383,-0.523415715,0.014878571024435816,-0.005489135,0.851929684,0.01961202,0.024930768438334604,1.1016196533314233,-3.26E-05,1.4085066900362524E-4,-8.45E-05,Home
156,-138.1111111,-108.8885358,18.062587757110595,-27.69985548,0.002293781,-1.63E-04,-5.88E-04,9.897995106224874,-0.245447267,-0.195076028,9.897995106224874,-0.245447267,-0.195076028,-0.021777001,0.013354129438261383,5.737812601897902E-4,-136.4884729,24.002645435333253,17.059991626739503,0,0.5724508762359619,1.2045589685440063,12.482999801635742,0.003146422,0,160.09999084472656,-86.915468,40.3848383,-0.523258128,0.014855473329430645,-0.005416758,0.8520274561585732,0.019653054,0.024779513,1.1012497017684493,-9.19E-05,-8.45E-05,-3.71E-05,Home
157,-143.5,-108.8185084,18.34269962310791,-27.85308737,0.021179902900769872,0.004137081,9.739717233528211E-6,9.938586049866908,-0.238399474,-0.194774021,9.938586049866908,-0.238399474,-0.194774021,-0.021824445,0.013508324,4.6703126903135077E-4,-136.4191771,24.283001518249513,16.907247676849366,0,0.6530696749687195,1.2145745754241943,12.420000076293945,0.00495248,0,160.09999084472656,-86.9154681,40.3848383,-0.52285758,0.014762272,-0.005288406,0.8522757557989324,0.019639972723948147,0.024453949,1.1003104101106957,-1.39E-04,6.968400879645521E-5,-1.44E-04,Home
158,-133.5555556,-108.8419321,18.337575645446776,-27.97337938,0.009491245,0.001709887,0.003025995,9.955160489449135,-0.238290048,-0.19200101,9.955160489449135,-0.238290048,-0.19200101,-0.021753278,0.013638796203417106,4.670312752477029E-4,-136.4413812,24.27751163482666,16.787077751159668,0,0.6307138800621033,1.2245737314224243,12.189000129699707,0.003313718,0,160.09999084472656,-86.9154681,40.3848383,-0.522451707,0.014659387954664461,-0.005171921,0.8525271479365895,0.019597848660303552,0.024138405412724873,1.0993590759999543,-6.82E-05,2.0015623942650493E-4,-1.44E-04,Home
159,-128.375,-108.8490074,18.354899673461915,-28.0524354,-0.003581084,0.003595345,0.0022782,9.944027937731697,-0.235948573,-0.192357967,9.944027937731697,-0.235948573,-0.192357967,-0.021824445,0.013864157287385857,3.6028125187725695E-4,-136.4485794,24.29556755065918,16.707167644500732,0,0.370135099,1.234573483467102,12.10200023651123,0.001595823,0,160.09999084472656,-86.9154681,40.3848383,-0.522387476,0.014642449231474723,-0.005154528,0.8525668695135024,0.019588896462205543,0.02408956,1.0992085979980173,-1.39E-04,4.2551735560726194E-4,-2.51E-04,Home
160,-136.5555556,-108.8354659,18.398209648132323,-27.9290934,1.883553069772072E-4,-7.49E-04,0.002087517,9.945578751054782,-0.239227091,-0.192497355,9.945578751054782,-0.239227091,-0.192497355,-0.021646529,0.013626935014736306,5.500590472789572E-4,-136.4365012,24.338755512237547,16.830997581481935,0,0.3471311032772064,1.2446743249893188,12.024999618530273,0.004160479,0,160.09999084472656,-86.9154682,40.3848383,-0.522185937,0.014588257334041364,-0.0051017,0.8526915803696345,0.019557311280983165,0.023938222996239523,1.0987364053726196,3.8548613428273825E-5,1.882951196906998E-4,-6.08E-05,Home
161,-146.25,-108.8493741,18.41028762817383,-28.08061758,-0.003506096,-2.66E-04,-5.05E-04,9.940226804862903,-0.237441184,-0.194262932,9.940226804862903,-0.237441184,-0.194262932,-0.021646528,0.013377851734245286,5.975034990962775E-4,-136.4499217,24.35071153640747,16.67874170303345,0,0.32649654150009155,1.104349970817566,11.734000205993652,0.033729586750268936,0,160.09999084472656,-86.9154685,40.3848388,-0.522062176,0.014536586282684387,-0.005098939,0.8527682759229419,0.019475517,0.023876715035548488,1.0984467557333049,3.8548613428273825E-5,-6.08E-05,-1.33E-05,Home
162,-132.5555556,-108.8032576,18.41199568,-28.20810747,-0.002746325,9.767123712943151E-5,-9.45E-04,9.932284429235366,-0.239169011,-0.19565681,9.932284429235366,-0.239169011,-0.19565681,-0.021696824,0.013532616386118416,4.1114718904002354E-4,-136.4028294,24.351809616088868,16.55125175476074,0,0.3342154920101166,1.1144341230392456,11.47700023651123,0.046756584,0,160.09999084472656,-86.9154689,40.3848393,-0.52238194,0.014643904412738405,-0.005148342,0.852570311,0.01959804,0.024080406659497663,1.0991955456825404,-1.17E-05,9.397647339098442E-5,-2.00E-04,Home
163,-123.2222222,-108.8499842,18.468847694396974,-28.26837553,0.002440934,3.4649525452586056E-4,0.001262798,9.939373053393318,-0.240008242,-0.194425551,9.939373053393318,-0.240008242,-0.194425551,-0.021468612,0.013235518338104475,3.8400348852325267E-4,-136.4505315,24.408905544281005,16.491593761444094,0,0.44944411516189575,1.124354600906372,11.404000282287598,0.034946166,0,160.09999084472656,-86.915469,40.3848394,-0.522568821,0.014713344272696277,-0.00516642,0.8524544701992887,0.019692316362001364,0.024188111780337918,1.0996331416287468,2.1646529305002933E-4,-2.03E-04,-2.27E-04,Home
164,-100.625,-108.9394099,18.485317668914796,-28.30265739,-0.00282445,0.001639753,2.394586222843059E-4,9.934241711514668,-0.24207873,-0.190731777,9.934241711514668,-0.24207873,-0.190731777,-0.021575362,0.013081324,-1.93E-05,-136.5393475,24.425741577148436,16.457189712524414,0,0.1835756003856659,1.1343560218811035,11.244000434875488,0.021939313039183617,0,160.09999084472656,-86.915469,40.3848395,-0.522643803,0.014598549,-0.005431343,0.8524087603809765,0.019217411,0.024521583,1.0998113572018817,1.0971528889376273E-4,-3.57E-04,-6.30E-04,Home
165,-120.5555556,-108.8825578,18.52057569503784,-28.3791515,0.002063149,-7.54E-05,8.372103126303664E-4,9.937404132583767,-0.245043622,-0.189152049,9.937404132583767,-0.245043622,-0.189152049,-0.021599084,0.013484601754224996,5.856423861419475E-4,-136.4827394,24.460389575958253,16.381061687469483,0,0.37121421098709106,1.1443809270858765,11.175999641418457,0.012031902559101582,0,160.09999084472656,-86.9154691,40.3848395,-0.522723144,0.014593037722397197,-0.005511745,0.8523597404794786,0.019121756234649314,0.024654732,1.099997778540676,8.599306411534837E-5,4.596178740877839E-5,-2.52E-05,Home
166,-133.75,-108.9638104,18.503617610931396,-28.30814751,-0.00415877,-9.51E-04,-7.70E-04,9.932723017572199,-0.245328207,-0.188919736,9.932723017572199,-0.245328207,-0.188919736,-0.021634667,0.013282962803484745,6.805312852556049E-4,-136.5639908,24.44391954421997,16.45230962753296,0,0.42047592997550964,1.1544140577316284,11.190999984741211,0.008273529,0,160.09999084472656,-86.9154692,40.3848395,-0.522537699,0.014496265802062253,-0.005538873,0.8524749302169652,0.018933715859373795,0.024595676568671336,1.0995639932965768,5.040972525235808E-5,-1.56E-04,6.968401670817611E-5,Home
167,-117.8888889,-108.9407523,18.477143669128417,-28.33132753,-0.019361339,-0.002196493,-1.75E-04,9.892365978314327,-0.249920547,-0.189055996,9.892365978314327,-0.249920547,-0.189055996,-0.021551639,0.013437157279802757,5.500590591465386E-4,-136.5410558,24.417323627471923,16.42876356124878,0,0.2147091031074524,1.1643506288528442,11.24899959564209,0.004435404,0,160.09999084472656,-86.9154692,40.3848395,-0.523088915,0.014655772840730774,-0.005664708,0.8521331878541742,0.019058083482448338,0.024989345047659088,1.1008559708456391,1.3343750802094785E-4,-1.48E-06,-6.08E-05,Home
168,-129,-108.9840618,18.49190565109253,-28.36280352,-0.006687655,4.1059093567931534E-4,8.720482148013069E-4,9.882174454846428,-0.250924042,-0.189128818,9.882174454846428,-0.250924042,-0.189128818,-0.021729556,0.013484601790392861,4.907535005912401E-4,-136.5838773,24.43232957839966,16.396799697875977,0,0.39812058210372925,1.1743308305740356,11.33899974822998,0.001916595,0,160.09999084472656,-86.9154692,40.3848395,-0.523684113,0.014831372283543776,-0.00579523,0.851763688,0.019203283,0.025408979,1.102251405854827,-4.45E-05,4.596179306000761E-5,-1.20E-04,Home
169,-139.5555556,-108.9832077,18.498981761932374,-28.33022943,0.0011374,2.3980771453635207E-4,3.102609833467354E-5,9.886379343792072,-0.251275415,-0.188315723,9.886379343792072,-0.251275415,-0.188315723,-0.021587223,0.013318546179645849,4.5517016568411033E-4,-136.583268,24.43916160583496,16.429373683929445,0,0.29546573758125305,1.1843360662460327,11.46399974822998,6.704633124172688E-4,0,160.09999084472656,-86.9154692,40.3848395,-0.523632956,0.014775567100320047,-0.005849433,0.8517957404979224,0.019052935,0.025441738840156387,1.1021322602207222,9.78541725486951E-5,-1.20E-04,-1.56E-04,Home
170,-106,-108.97601,18.529481620788573,-28.31314951,0.002921771,8.864145255783229E-4,0.001058445,9.891885303756565,-0.250581382,-0.186364294,9.891885303756565,-0.250581382,-0.186364294,-0.021741417,0.013472740692131727,5.026146124153245E-4,-136.576192,24.469051685333252,16.446209716796876,0,0.6447480320930481,1.194348692893982,11.609000205993652,1.8219195771962404E-4,0,160.09999084472656,-86.9154692,40.3848395,-0.52356841,0.014734698332918501,-0.005870369,0.8518359869429208,0.018963281300316735,0.025433170563966326,1.1019813551486117,-5.63E-05,3.410068293129211E-5,-1.08E-04,Home
171,-105.625,-108.833148,18.51410961151123,-28.33962349,0.003597516,0.001647358,-2.58E-05,9.897669986613746,-0.248873881,-0.188408648,9.897669986613746,-0.248873881,-0.188408648,-0.021802548,0.013614846,4.8162956787004636E-4,-136.4338174,24.45392349243164,16.420833644866942,0,0.1878829449415207,1.204379916191101,11.868000030517578,7.077132613630965E-5,0,160.09999084472656,-86.9154692,40.3848395,-0.523481045,0.014736357270381771,-0.005807118,0.8518900802502265,0.019034931,0.025325165,1.1017759362092385,-1.17E-04,1.7620591881076017E-4,-1.29E-04,Home
172,-88.55555556,-108.8534001,18.50996160507202,-28.26678944,0.019205621145303966,0.001556228,3.0195843247534E-4,9.933957146209421,-0.247265115,-0.190662083,9.933957146209421,-0.247265115,-0.190662083,-0.021610945,0.013816713,5.975034962706629E-4,-136.4538252,24.450385704040528,16.493423709869386,0,0.6356099247932434,1.214447259902954,11.996999740600586,4.6712673793081194E-5,0,160.09999084472656,-86.9154692,40.3848395,-0.523336247,0.014770434093345138,-0.005651866,0.8519794692113561,0.019259788168286815,0.025092995680362277,1.101434944902809,7.41319489005266E-5,3.780729083109249E-4,-1.33E-05,Home
173,-100.375,-108.8669419,18.553637714385985,-28.22652948,0.006780578,0.002549713,0.002440744,9.948026676,-0.241047842,-0.189361131,9.948026676,-0.241047842,-0.189361131,-0.021741417,0.013591351719952903,7.161146162068743E-4,-136.4670018,24.493573474884034,16.53270763397217,0,0.2416609227657318,1.2243810892105103,12.147000312805176,0.003369243,0,160.09999084472656,-86.9154693,40.3848395,-0.522645777,0.014626298,-0.005404387,0.8524072702648571,0.019292901206797768,0.024504696190791223,1.0998154959632356,-5.63E-05,1.5271178986967624E-4,1.0526734483383089E-4,Home
174,-116.5555556,-108.9135457,18.596581630706787,-28.23763149,0.002229329,0.001144555,0.001087357,9.947225311,-0.241073977,-0.189988376,9.947225311,-0.241073977,-0.189988376,-0.021800723,0.013638796185333174,2.53531257893203E-4,-136.513727,24.536151542663575,16.522337799072265,0,0.4386342465877533,1.2343932390213013,12.35200023651123,0.002751608,0,160.09999084472656,-86.9154693,40.3848395,-0.522418305,0.014551954515712354,-0.005366107,0.8525482543463846,0.019212645632260054,0.024356563186761247,1.0992826084488805,-1.16E-04,2.00156238861382E-4,-3.57E-04,Home
175,-92.25,-108.8575484,18.553393688201904,-28.2766715,-0.001187232,-0.002454037,-0.001196374,9.945517228199886,-0.245304584,-0.192714254,9.945517228199886,-0.245304584,-0.192714254,-0.021812584,0.013662518408981342,6.449479322645415E-4,-136.457363,24.49369545,16.483053760528563,0,0.2416609227657318,1.2444133758544922,12.482000350952148,0.001505567,0,160.09999084472656,-86.9154693,40.3848395,-0.522475951,0.014574654897656834,-0.005369619,0.8525124319548746,0.019245983580651792,0.024387625832725496,1.0994176447970196,-1.28E-04,2.238784619444276E-4,3.410065976125233E-5,Home
176,-99,-108.9560023,18.54241355895996,-28.31754145,-0.003876464,0.00191274,0.002371691,9.940824906802872,-0.238463361,-0.189012662,9.940824906802872,-0.238463361,-0.189012662,-0.02155164,0.013615074,6.805312637809339E-4,-136.5565492,24.48149549484253,16.44267174,0,0.1835756003856659,1.1034750938415527,12.31499958,0.043437321,0,160.09999084472656,-86.9154698,40.3848402,-0.522275745,0.014537089242084512,-0.005291049,0.8526361411057629,0.019269619046629053,0.024209918508541237,1.0989483039355972,1.3343751141168538E-4,1.7643400899686136E-4,6.96839822356779E-5,Home
177,-134.25,-108.8840221,18.562177658081055,-28.33669561,-0.0023514,0.001775818,0.002557174,9.931398780600539,-0.239787545,-0.189593444,9.931398780600539,-0.239787545,-0.189593444,-0.021682112,0.013709962847235711,4.4330904312269055E-4,-136.484081,24.501869468688966,16.423883628845214,0,0.22360679507255554,1.1134623289108276,12.173999786376953,0.064250164,0,160.09999084472656,-86.9154703,40.3848408,-0.52243267,0.01459357,-0.00530901,0.852539071,0.019342861671760244,0.024303015556584283,1.099315629422086,2.9652790862669064E-6,2.713229086756417E-4,-1.68E-04,Home
178,-143.7777778,-108.8743842,18.508497638702394,-28.31851749,0.002683214,0.001494078,0.001393415,9.939068026,-0.239366478,-0.190104532,9.939068026,-0.239366478,-0.190104532,-0.021670251,0.013496462888653997,5.026146067640952E-4,-136.4750534,24.44855562210083,16.441573715209962,0,0.22360679507255554,1.1234930753707886,12.031000137329102,0.052507124841213226,0,160.09999084472656,-86.9154705,40.3848411,-0.522302439,0.014538645834743399,-0.005307016,0.8526198331592152,0.019254967,0.024239269,1.0990108031671024,1.4826389780105317E-5,-5.78E-05,-1.08E-04,Home
179,-119.625,-108.925502,18.489709587097167,-28.20481356,-5.96E-04,-9.56E-05,-9.39E-04,9.937653893405951,-0.240594831,-0.190917627,9.937653893405951,-0.240594831,-0.190917627,-0.021708571,0.013650087,4.111471895997126E-4,-136.5255609,24.429279708862303,16.55539966583252,0,0.2325940728187561,1.1334826946258545,11.774999618530273,0.030175460502505302,0,160.09999084472656,-86.9154706,40.3848412,-0.522172286,0.014468518417113675,-0.005329633,0.8527006111465968,0.019115402990092453,0.024201655,1.0987064586235926,-2.35E-05,5.873531335964799E-5,-2.00E-04,Home
180,-143.1111111,-108.9078124,18.54802558898926,-28.31375948,4.5141201574825545E-4,4.463801974231757E-4,-3.82E-04,9.938283957323982,-0.240321865,-0.19096409,9.938283957323982,-0.240321865,-0.19096409,-0.021634667,0.013662518390897408,5.381979450619626E-4,-136.5077492,24.48820556640625,16.446331691741943,0,0.25495097041130066,1.1435437202453613,11.569000244140625,0.017007341608405113,0,160.09999084472656,-86.9154706,40.3848412,-0.522242478,0.014502213,-0.005324075,0.85265709,0.019176706,0.024228939,1.0988706593374604,5.040972525235808E-5,7.116667094450552E-5,-7.26E-05,Home
181,-130.3333333,-108.8940261,18.477631664276124,-28.23567951,-0.004777029,-6.94E-04,-9.49E-04,9.931093836293638,-0.241396312,-0.191521641,9.931093836293638,-0.241396312,-0.191521641,-0.021480473,0.013472740628837961,5.737812810993382E-4,-136.4948169,24.417323665618895,16.523435764312744,0,0.25495097041130066,1.1435437202453613,11.569000244140625,0.017007341608405113,0,160.09999084472656,-86.9154706,40.3848412,-0.522244007,0.014503369207304079,-0.005323267,0.8526561451189726,0.019179481,0.024228797375577166,1.0988742136260838,2.0460418009569923E-4,-1.19E-04,-3.71E-05,Home
182,-142.875,-108.9821102,18.554857559204102,-28.31180746,-0.019435984,-0.001487053,-2.84E-04,9.892744888379736,-0.246155822,-0.190174226,9.892744888379736,-0.246155822,-0.190174226,-0.021587223,0.013271101687139677,2.298090252030677E-4,-136.5819255,24.494793586730957,16.448771667480468,0,0.21023796498775482,1.1634997129440308,11.848999977111816,0.005532426,0,160.09999084472656,-86.9154707,40.3848412,-0.522778023,0.014615563956062191,-0.005513601,0.8523254897987959,0.019156470569302735,0.024682743601428653,1.1001264713342906,9.785417593943262E-5,-3.20E-04,-3.81E-04,Home
183,-93.66666667,-108.9286738,18.41358165740967,-28.30961147,-0.006135191,9.310788031920646E-4,7.482877055418145E-4,9.882104396820068,-0.249008859,-0.188273728,9.882104396820068,-0.249008859,-0.188273728,-0.021729556,0.013662518399939375,2.7725345724108585E-4,-136.5289775,24.353517532348633,16.449991703033447,0,0.20124611258506775,1.1734089851379395,11.852999687194824,0.006592279,0,160.09999084472656,-86.9154708,40.3848412,-0.523483468,0.014763301374047126,-0.005765576,0.8518882035051735,0.019124121721653106,0.025282763,1.1017812675642735,-4.45E-05,7.116667094450552E-5,-3.34E-04,Home
184,-102.125,-108.8986623,18.492393589019777,-28.29911949,1.6258758248634709E-4,-0.001983782,-0.001508403,9.884288547108474,-0.253197805,-0.188524804,9.884288547108474,-0.253197805,-0.188524804,-0.021658389,0.013425296,5.026145971570056E-4,-136.4982332,24.432451572418213,16.46060573577881,0,0.20124611258506775,1.183422327041626,11.920000076293945,0.004102627,0,160.09999084472656,-86.9154708,40.3848412,-0.523432213,0.014679737054534908,-0.005864336,0.8519206081779258,0.018879925,0.025362355,1.1016623360439413,2.668750160418957E-5,-1.66E-04,-1.08E-04,Home
185,-111.2222222,-108.9009801,18.512767601013184,-28.22543148,0.002642993,0.001417954,-0.001332872,9.890607583870008,-0.247241885,-0.191637797,9.890607583870008,-0.247241885,-0.191637797,-0.021705834,0.014089518375875592,7.279757359426794E-4,-136.5011623,24.45294755935669,16.534659652709962,0,0.20124611258506775,1.183422327041626,11.920000076293945,0.004102627,0,160.09999084472656,-86.9154708,40.3848412,-0.523481848,0.014789624582722928,-0.005669984,0.8518895240663324,0.019269211959202313,0.025147253285767963,1.1017766357625571,-2.08E-05,4.98166701132522E-4,1.1712844026935043E-4,Home
186,-144.25,-108.9458756,18.55644361495972,-28.28313747,0.001951921,8.288629136039216E-4,-6.53E-04,9.893720562018236,-0.246794682,-0.19221858,9.893720562018236,-0.246794682,-0.19221858,-0.021788862,0.013389712841548388,4.1958682908161174E-4,-136.5454472,24.496989555358887,16.476221675872804,0,1.5,1.192397952079773,12.215999603271484,0.004189995,0,160.09999084472656,-86.9154709,40.3848412,-0.523453568,0.014812686661421095,-0.005602942,0.8519070015370267,0.019379593,0.025056505,1.1017096181517665,-1.04E-04,-2.02E-04,-1.91E-04,Home
187,-135.1111111,-108.8778008,18.577671623229982,-28.38476353,0.017672254489018366,0.00415406,1.4838160803684822E-4,9.923880558569454,-0.240336383,-0.19187011,9.923880558569454,-0.240336383,-0.19187011,-0.021720318,0.013744063532123199,3.4066481636658026E-4,-136.4778586,24.51858346939087,16.375571689605714,0,0.23600848019123077,1.2134883403778076,12.187000274658203,0.001519134,0,160.09999084472656,-86.9154709,40.3848412,-0.52300545,0.014710819214367522,-0.00545543,0.8521848687758813,0.019373302,0.024688257531334575,1.1006585909770086,-3.52E-05,1.5271181473508477E-4,-2.70E-04,Home
188,-79,-108.8963441,18.59694766998291,-28.31424753,0.012596889606957297,0.001219725,5.0154415149133184E-5,9.950474739074707,-0.240359614,-0.191614566,9.950474739074707,-0.240359614,-0.191614566,-0.021646528,0.013615074,3.7214238235039766E-4,-136.4956715,24.53712749481201,16.444867668151854,0,0.3138470947742462,1.2235275506973267,12.178999900817871,5.410515004768968E-4,0,160.09999084472656,-86.9154709,40.3848412,-0.522498188,0.014571898399843174,-0.005326442,0.8524992170843105,0.019285838,0.024311555,1.0994696293062376,3.8548613428273825E-5,2.3722223648168508E-5,-2.39E-04,Home
189,-82.66666667,-109.0556759,18.635621604919432,-28.2678874,0.001283025,0.002607705,1.377320116006055E-4,9.950370186740912,-0.237293086,-0.190081301,9.950370186740912,-0.237293086,-0.190081301,-0.021717695,0.013555768407085568,4.314479420359418E-4,-136.6563448,24.57519142150879,16.49195972442627,0,0.37121421098709106,1.2334383726119995,12.154000282287598,0.003652415,0,160.09999084472656,-86.915471,40.3848412,-0.522163268,0.014448025480853123,-0.005293166,0.852706713,0.019118777232118023,0.024117834,1.0986854578684835,-3.26E-05,-3.56E-05,-1.79E-04,Home
190,-84.11111111,-108.8668198,18.58389362335205,-28.22933546,-0.00179201,5.622961856786487E-4,1.661899020370928E-5,9.945648397056802,-0.238570806,-0.190034837,9.945648397056802,-0.238570806,-0.190034837,-0.021824445,0.013709962874361612,4.3144794260106475E-4,-136.4671223,24.523097496032715,16.53136564254761,0,0.7026379108428955,1.2434781789779663,12.199000358581543,0.005342115,0,160.09999084472656,-86.915471,40.3848411,-0.522066579,0.014422424,-0.005267183,0.8527665091949759,0.01910496,0.024044606599558906,1.0984589301266716,-1.39E-04,1.1861111824084254E-4,-1.79E-04,Home
191,-70.375,-108.9603942,18.54168155670166,-28.30485352,-0.002431953,-1.42E-04,-2.44E-04,9.941280924356901,-0.239175854,-0.190045337,9.941280924356901,-0.239175854,-0.190045337,-0.021705834,0.013615073961685004,4.670312769430717E-4,-136.5599649,24.48234956741333,16.455603656768798,0,0.4792702794075012,1.1025010347366333,11.949999809265137,0.035480298,0,160.09999084472656,-86.9154713,40.3848417,-0.522066017,0.014415938705567595,-0.005277256,0.8527669038587403,0.019083392,0.024055004879398253,1.0984577264600588,-2.08E-05,2.3722223648168508E-5,-1.44E-04,Home
192,-64.88888889,-108.8935384,18.54875764846802,-28.31131948,-0.012865242,-0.001132842,-3.22E-05,9.921235075274717,-0.240464156,-0.190847933,9.921235075274717,-0.240464156,-0.190847933,-0.021717695,0.013638796185333174,5.500590580162927E-4,-136.4937187,24.488571453094483,16.44913776397705,0,0.31400635838508606,1.1124688386917114,11.906000137329102,0.058052767,0,160.09999084472656,-86.9154716,40.3848424,-0.522170625,0.014476299683735209,-0.005252656,0.8527019787760615,0.019209109,0.024078423247753996,1.0987022513324776,-3.26E-05,4.7444447296337016E-5,-6.08E-05,Home
193,-82.75,-108.9028098,18.51130355834961,-28.27813543,-0.019009127,-0.002354672,-8.99E-04,9.880734157,-0.247041514,-0.191080246,9.880734157,-0.247041514,-0.191080246,-0.021741417,0.013532046156311497,3.9586460543344324E-4,-136.5021373,24.45075155258179,16.48158966064453,0,0.28425341844558716,1.1223976612091064,11.83899974822998,0.043519441,0,160.09999084472656,-86.9154717,40.3848427,-0.522949117,0.014655420764629702,-0.005505468,0.8522200694361937,0.019228137125378672,0.024714346088975377,1.1005272656968497,-5.63E-05,-5.93E-05,-2.15E-04,Home
194,-138.3333333,-108.8878043,18.519843673706056,-28.30412144,0.007178297,0.002208795,-5.71E-04,9.892791257321257,-0.243783326,-0.190847934,9.892791257321257,-0.243783326,-0.190847934,-0.021741417,0.013662518418023309,4.077257178226504E-4,-136.487009,24.459779586791992,16.456091690063477,0,0.28425341844558716,1.1324701309204102,11.760000228881836,0.026604661718010902,0,160.09999084472656,-86.9154717,40.3848428,-0.523156437,0.014703249034372349,-0.005572553,0.8520916000153255,0.019233528,0.024883416,1.1010134277991879,-5.63E-05,7.116667094450552E-5,-2.03E-04,Home
195,-112.625,-108.9085439,18.554613666534422,-28.31717552,0.018916426353084232,0.002235304,-2.43E-04,9.936849474,-0.240559985,-0.190824702,9.936849474,-0.240559985,-0.190824702,-0.021670251,0.013508323968831197,5.026146135455702E-4,-136.5083588,24.494305515289305,16.44230567932129,0,0.3996248245239258,1.1425061225891113,11.609999656677246,0.012179292738437653,0,160.09999084472656,-86.9154717,40.3848428,-0.522655798,0.014583633769556735,-0.00541718,0.8524017825867366,0.019206482356468452,0.024482138816592763,1.0998395901281857,1.4826389780105317E-5,-8.30E-05,-1.08E-04,Home
196,-110.6666667,-108.8825578,18.52020959854126,-28.2558095,0.003993429,0.001405645,5.305690261033865E-4,9.942062044606626,-0.238457554,-0.188501573,9.942062044606626,-0.238457554,-0.188501573,-0.021649836,0.013603098815880142,5.16870754766457E-4,-136.4817635,24.460267601013182,16.50379377365112,0,0.4788528084754944,1.1524057388305664,11.581999778747559,0.004322113,0,160.09999084472656,-86.9154717,40.3848427,-0.522149025,0.014417958374206837,-0.005331776,0.8527157106078588,0.019027567379033335,0.024151974,1.0986525519536092,3.5241188015788794E-5,1.1747062671929598E-5,-9.40E-05,Home
197,-90.75,-108.8914639,18.477143516540526,-28.34743141,-0.019555962,-0.002556785,-0.001381615,9.902107062849026,-0.243879156,-0.190174226,9.902107062849026,-0.243879156,-0.190174226,-0.021765139,0.013425296172499657,4.907534983307484E-4,-136.4907916,24.41756753921509,16.413269691467285,0,0.44283178448677063,1.1624056100845337,11.53499984741211,0.001043527,0,160.09999084472656,-86.9154717,40.3848427,-0.522359722,0.014464882102984827,-0.005402668,0.8525853787811057,0.019027559,0.024326616681171854,1.0991464401911764,-8.01E-05,-1.66E-04,-1.20E-04,Home
198,-127.3333333,-108.886828,18.491661586761474,-28.31229553,-0.009309982,-0.001388318,-0.001926889,9.885124864,-0.247108304,-0.19168426,9.885124864,-0.247108304,-0.19168426,-0.021788862,0.01367438,4.077257183877733E-4,-136.4879857,24.431109561920167,16.447917766571045,0,0.411460817,1.1723954677581787,11.503999710083008,0.005896409,0,160.09999084472656,-86.9154718,40.3848426,-0.523064408,0.014666197,-0.005568259,0.852148743,0.019177521,0.024835271,1.1007978985610518,-1.04E-04,8.302778276858978E-5,-2.03E-04,Home
199,-147.5,-108.8901224,18.524235591888427,-28.24946537,5.313169608995753E-4,6.586755942372442E-4,-8.02E-04,9.888911645389298,-0.246039664,-0.191963036,9.888911645389298,-0.246039664,-0.191963036,-0.021527917,0.013342268349042216,6.212257267003065E-4,-136.4896931,24.464171524047853,16.510869674682617,0,0.19209372997283936,1.1824235916137695,11.449000358581543,0.002816974,0,160.09999084472656,-86.9154718,40.3848427,-0.523291916,0.014762305500871927,-0.005571678,0.8520073670785404,0.019331151167455228,0.024946814475273624,1.1013306969577827,1.5715973166911636E-4,-2.49E-04,1.0378455892386077E-5,Home
200,-126.4444444,-108.8848761,18.516915531158446,-28.43087952,0.001835064,0.001007875,-0.001262043,9.893286402408894,-0.244792659,-0.19045948,9.893286402408894,-0.244792659,-0.19045948,-0.021670251,0.013330407268865016,4.4330904877391977E-4,-136.4855457,24.457583656311034,16.329211654663087,0,0.19209372997283936,1.1824235916137695,11.449000358581543,0.002816974,0,160.09999084472656,-86.9154718,40.3848427,-0.523066934,0.014653665691758822,-0.005590177,0.8521472667027445,0.019133148244717745,0.024859572,1.1008040835556474,1.4826389780105317E-5,-2.61E-04,-1.68E-04,Home
201,-107.7777778,-108.8969542,18.516915740966798,-28.34145334,0.00245285,-3.44E-04,-0.001519643,9.897414420414897,-0.245740563,-0.191730722,9.897414420414897,-0.245740563,-0.191730722,-0.021492334,0.013425296145373756,6.568090616074363E-4,-136.4985995,24.45648546218872,16.41888168334961,0,1.5,1.1913880109786987,11.565999984741211,0.003994173,0,160.09999084472656,-86.9154719,40.3848427,-0.52302606,0.014664640035299421,-0.005544109,0.8521724707871965,0.019201242175061726,0.024791598735937795,1.1007078295772514,1.9274306714136912E-4,-1.66E-04,4.596179192976176E-5,Home
202,-95.625,-108.9377023,18.55900552749634,-28.34572348,0.011784442420144684,0.001802733,-0.001982389,9.916013902830846,-0.240673236,-0.192311505,9.916013902830846,-0.240673236,-0.192311505,-0.021599084,0.013520185021882496,6.568090531305925E-4,-136.5382498,24.498087463378905,16.414489669799806,0,0.24596747756004333,1.212496042251587,11.486000061035156,0.001577978,0,160.09999084472656,-86.9154719,40.3848427,-0.522714345,0.014610199,-0.005415083,0.8523654393779422,0.019252297,0.024507649731144165,1.099976622942582,8.599306072461085E-5,-7.12E-05,4.5961774976074114E-5,Home
203,-107.4444444,-108.9372139,18.57559752,-28.37488146,0.010126873,0.001324138,-4.74E-04,9.939840520469888,-0.236959136,-0.19187011,9.939840520469888,-0.236959136,-0.19187011,-0.021705834,0.013532046183437398,7.042534998618066E-4,-136.5386147,24.516387519836425,16.38533157348633,0,0.16401219367980957,1.2224364280700684,11.473999977111816,5.592691013589501E-4,0,160.09999084472656,-86.9154719,40.3848427,-0.522102596,0.014476858829916681,-0.005204403,0.8527438929937419,0.019262349,0.023995178,1.0985425699104383,-2.08E-05,-5.93E-05,9.340622509802574E-5,Home
204,-129.625,-108.943192,18.543755645751954,-28.38085934,0.007957202,0.003184386,2.563320673429049E-4,9.949661625,-0.233947779,-0.190476233,9.949661625,-0.233947779,-0.190476233,-0.02167333,0.013274181043156065,3.5241179060764036E-5,-136.5433727,24.48332561,16.379109649658204,0,0.16278821229934692,1.232452392578125,11.522000312805176,0.003728987,0,160.09999084472656,-86.915472,40.3848427,-0.52186179,0.014397878701297136,-0.00516422,0.8528928762445083,0.019176284,0.023838738,1.0979787214444234,1.1747062671929598E-5,-3.17E-04,-5.76E-04,Home
205,-108,-108.9507565,18.56083564758301,-28.46296545,9.764884282084345E-4,-0.001486338,-0.001126474,9.951023555496365,-0.243251911,-0.188478341,9.951023555496365,-0.243251911,-0.188478341,-0.021693973,0.013437157261718824,3.958645901751243E-4,-136.5502052,24.501137580871582,16.29749158859253,0,0.20248456299304962,1.2424367666244507,11.54699993133545,0.00273214,0,160.09999084472656,-86.915472,40.3848427,-0.522200794,0.014370904873731067,-0.00544377,0.8526840088436904,0.018828800707621482,0.024295072,1.0987750152939733,-8.90E-06,-1.54E-04,-2.15E-04,Home
